Date,Time,ERR,ErrD,InFlight,MAIN,CLUT,TFCK,LFP,E2EQ,BFP,MCHM,16FS,SBLO,SBHI,Wav1,Wav2,RecV,BecV,BecA,BecT,BatV,BatA,BmAH,CELS,Cel1,Cel2,TeeV,AmbT,CanT,EngT,AccX,AccY,AccZ,AccTmp,GyrX,GyrY,GyrZ,VibS
18/08/2020,18:45:49,ERR,ErrD,1,1273,0,74,100,27,8,451,0,0,9761,1753,0,5.38,5.4,0.83,21.48,6.53,1.2,3.1,6.6,3.29,3.31,5.32,62.36,20.84,22.89,0,0,0,0,0,0,0,
18/08/2020,18:45:49,ERR,ErrD,1,1273,0,89,100,0,8,451,0,0,12373,1482,0,5,4.93,0.83,21.56,6.56,1.2,3.1,6.6,3.29,3.31,5.32,77.62,20.86,23.22,31116,38232,21885,40,29642,32573,0,
18/08/2020,18:45:49,ERR,ErrD,1,1273,0,109,100,0,8,451,0,10000,20508,1319,0,4.99,4.92,0.83,21.57,6.57,1.2,3.1,6.6,3.29,3.31,5.32,74.28,20.86,23.3,31179,35743,22243,40,25818,39429,0,
18/08/2020,18:45:49,ERR,ErrD,1,1273,0,130,100,0,8,84,0,6213,20544,1155,0,5.15,5.08,0.79,21.59,6.56,1.78,3.34,6.61,3.29,3.32,5.32,73.42,20.83,28.91,33081,40576,22738,40,28423,43301,0,
18/08/2020,18:45:49,ERR,ErrD,1,1273,0,152,100,32,8,29,0,6213,20544,992,0,5.01,4.95,0.79,21.56,6.56,1.78,3.34,6.61,3.29,3.32,5.32,76.65,20.84,23.81,31693,35746,25018,40,28465,39619,1,
18/08/2020,18:45:50,ERR,ErrD,1,1273,0,174,100,32,8,29,0,6902,20544,828,0,5.08,5.02,0.79,21.83,6.57,1.18,3.51,6.61,3.29,3.32,5.32,74.5,20.82,23.61,31764,39880,23147,40,32245,43474,0,
18/08/2020,18:45:50,ERR,ErrD,1,1273,0,196,100,32,8,29,0,6902,20544,656,0,4.83,4.74,0.87,21.6,6.57,1.18,3.51,6.61,3.29,3.32,5.32,76.98,20.83,23.82,26969,37684,20625,40,31062,40918,1,
18/08/2020,18:45:50,ERR,ErrD,1,4663,24,218,100,100,8,19,0,6919,11732,500,0,4.91,4.79,0.87,21.56,6.56,1.18,3.51,6.61,3.29,3.32,5.32,76.53,20.82,23.92,30243,37954,25908,40,32285,39530,1,
18/08/2020,18:45:50,ERR,ErrD,1,4663,24,240,100,23,8,19,0,4924,14958,336,0,4.42,4.25,0.82,21.59,6.59,1.21,3.68,6.6,3.29,3.31,5.32,72.8,20.84,24.05,35589,38401,26395,40,29848,42145,1,
18/08/2020,18:45:50,ERR,ErrD,1,4663,24,262,100,0,8,19,0,4924,17225,172,0,4.79,4.68,0.82,21.55,6.58,1.21,3.68,6.6,3.29,3.31,5.32,74.74,20.84,25.99,29785,39797,24846,40,29739,34442,1,
18/08/2020,18:45:51,ERR,ErrD,1,4663,24,284,100,0,8,23,0,4924,17225,336,0,4.42,4.23,0.82,21.54,6.6,1.14,3.84,6.6,3.29,3.31,5.32,78.05,20.76,24.26,30976,34081,23453,40,29801,35540,1,
18/08/2020,18:45:51,ERR,ErrD,1,4663,24,306,100,0,8,23,0,8317,10250,491,0,3.93,3.91,0.87,21.53,6.6,1.14,3.84,6.6,3.29,3.31,5.32,76.21,20.81,24.37,32869,36994,21508,40,29755,38355,1,
18/08/2020,18:45:51,ERR,ErrD,1,4663,24,328,100,100,8,23,0,6919,12309,656,0,3.79,3.83,0.87,21.54,6.57,1.14,3.84,6.6,3.29,3.31,5.32,75.2,20.79,24.56,32217,36773,19975,40,32258,34367,0,
18/08/2020,18:45:51,ERR,ErrD,1,4663,24,350,100,0,8,23,0,6906,17382,820,0,3.89,3.91,0.82,21.53,6.6,2.45,4.18,6.6,3.29,3.31,5.32,78.69,20.86,25.69,33340,34684,22939,40,28419,39632,0,
18/08/2020,18:45:51,ERR,ErrD,1,4663,24,372,100,0,8,19,0,6906,18783,992,0,3.82,3.85,0.82,21.56,6.58,2.45,4.18,6.6,3.29,3.31,5.32,78.74,20.83,24.84,40641,33557,20512,40,32261,37130,1,
18/08/2020,18:45:52,ERR,ErrD,1,4663,24,394,100,0,8,19,0,5205,18783,1155,0,3.68,3.73,0.82,21.51,6.59,1.3,4.36,6.6,3.29,3.31,5.32,75.3,20.87,24.89,31334,33623,23216,40,31045,38250,1,
18/08/2020,18:45:52,ERR,ErrD,1,4663,24,416,100,0,8,21,0,6902,11743,1310,0,3.65,3.69,0.76,21.6,6.59,1.3,4.36,6.61,3.3,3.31,5.32,76.64,20.85,24.73,42044,34077,18735,40,28445,39445,1,
18/08/2020,18:45:52,ERR,ErrD,1,3489,0,438,100,0,8,21,0,6902,18491,1482,0,3.81,3.8,0.76,21.58,6.58,1.3,4.36,6.61,3.3,3.31,5.32,72.25,20.84,25.07,35573,35204,18951,40,32312,38406,1,
18/08/2020,18:45:52,ERR,ErrD,1,3489,0,460,100,0,8,21,0,4914,18491,1646,0,3.46,3.4,0.79,21.66,6.5,1.36,4.55,6.61,3.3,3.31,5.32,78.39,20.85,25.11,37795,35623,20639,40,29771,44675,0,
18/08/2020,18:45:52,ERR,ErrD,1,3489,0,482,100,0,8,21,0,6902,18491,1811,0,3.66,3.7,0.79,21.58,6.54,1.36,4.55,6.6,3.28,3.32,5.32,75.66,20.8,25.23,30418,33820,20767,40,32208,39538,1,
18/08/2020,18:45:53,ERR,ErrD,1,3489,0,504,100,0,8,21,0,7940,12141,1646,0,3.49,3.4,0.79,21.6,6.54,1.99,4.82,6.6,3.28,3.32,5.32,80.54,20.88,25.37,34395,37175,19996,40,28468,39526,0,
18/08/2020,18:45:53,ERR,ErrD,1,3489,0,526,100,60,8,19,0,6909,16220,1482,0,3.45,3.39,0.87,21.56,6.54,1.99,4.82,6.6,3.28,3.32,5.32,77.64,20.81,25.03,32040,32347,20972,40,38598,36976,0,
18/08/2020,18:45:53,ERR,ErrD,1,3489,0,548,100,60,8,19,0,4901,16220,1319,0,3.49,3.42,0.87,21.53,6.59,1.99,4.82,6.6,3.28,3.32,5.32,78.35,20.81,25.48,29565,37982,19985,40,29667,43220,1,
18/08/2020,18:45:53,ERR,ErrD,1,3489,0,570,100,44,8,19,0,4901,16855,1146,0,3.45,3.4,0.83,21.57,6.6,1.7,5.06,6.6,3.29,3.31,5.32,76.41,20.84,25.53,30422,41398,20153,40,29720,42081,1,
18/08/2020,18:45:53,ERR,ErrD,1,3489,0,592,100,44,8,19,0,6920,16855,992,0,3.39,3.38,0.83,21.52,6.58,1.7,5.06,6.6,3.29,3.31,5.32,77.73,20.84,25.67,28059,37082,20524,40,30945,38304,0,
18/08/2020,18:45:54,ERR,ErrD,1,3489,0,614,100,0,8,19,0,6904,12011,828,0,3.45,3.4,0.83,21.55,6.59,1.16,5.22,6.6,3.29,3.31,5.32,76.33,20.81,25.8,30716,36355,20834,40,32208,45916,1,
18/08/2020,18:45:54,ERR,ErrD,1,3489,0,635,100,6,8,19,0,6904,18222,664,0,3.38,3.36,0.85,21.56,6.59,1.16,5.22,6.6,3.29,3.31,5.32,77.24,20.83,25.91,38117,33067,19946,40,32252,35727,0,
18/08/2020,18:45:54,ERR,ErrD,1,2805,29,657,100,6,8,21,0,6903,18222,491,0,3.38,3.36,0.85,21.57,6.55,1.16,5.22,6.6,3.29,3.31,5.32,76.95,20.84,28.93,30110,37994,19721,40,27173,35703,0,
18/08/2020,18:45:54,ERR,ErrD,1,2805,29,679,100,6,8,21,0,6623,18222,327,0,3.3,3.34,0.83,21.54,6.59,1.13,5.38,6.6,3.29,3.31,5.32,76.52,20.82,26.12,33306,40353,19208,40,23337,45936,1,
18/08/2020,18:45:54,ERR,ErrD,1,2805,29,701,100,0,8,21,0,8624,12639,172,0,3.32,3.34,0.83,21.51,6.58,1.13,5.38,6.6,3.29,3.31,5.32,77.41,20.84,26.2,30236,36663,21080,40,22062,38432,1,
18/08/2020,18:45:55,ERR,ErrD,1,2805,29,723,100,62,8,21,0,8313,16635,336,0,3.27,3.31,0.83,21.58,6.55,1.93,5.65,6.6,3.29,3.31,5.32,76.96,20.83,26.38,31489,37683,20271,40,28373,42103,0,
18/08/2020,18:45:55,ERR,ErrD,1,2805,29,745,100,62,8,21,0,6906,16635,500,0,3.43,3.39,0.86,21.56,6.59,1.93,5.65,6.6,3.29,3.31,5.32,76.03,20.81,26.51,28263,38146,20971,40,24599,38286,0,
18/08/2020,18:45:55,ERR,ErrD,1,2805,29,767,100,62,8,20,0,4915,16635,664,0,3.38,3.37,0.86,21.51,6.57,1.93,5.65,6.6,3.29,3.31,5.32,74.31,20.79,26.65,31440,39218,19996,40,23310,45918,0,
18/08/2020,18:45:55,ERR,ErrD,1,2805,29,789,100,62,8,20,0,6919,16635,820,0,3.42,3.35,0.83,21.51,6.55,1.27,5.83,6.6,3.29,3.31,5.32,73.2,20.81,26.7,33599,40718,19627,40,23307,42083,0,
18/08/2020,18:45:55,ERR,ErrD,1,2805,29,811,100,0,8,19,0,6922,12572,992,0,3.42,3.34,0.83,21.55,6.55,1.27,5.83,6.6,3.29,3.31,5.32,73.24,20.9,26.88,31530,38918,19531,40,27110,40698,1,
18/08/2020,18:45:56,ERR,ErrD,1,2805,29,833,100,0,8,19,0,6918,12572,1155,0,3.39,3.36,0.83,21.52,6.56,1.13,5.98,6.6,3.29,3.31,5.32,79.01,20.86,26.94,28000,38238,20434,40,30919,38311,0,
18/08/2020,18:45:56,ERR,ErrD,1,2805,29,855,100,0,8,19,0,4686,13370,1319,0,3.33,3.34,0.78,21.52,6.57,1.13,5.98,6.6,3.29,3.31,5.32,79.89,20.84,27,32604,39600,19872,40,33519,37113,1,
18/08/2020,18:45:56,ERR,ErrD,1,2595,0,877,100,0,8,26,0,4686,19685,1482,0,3.35,3.34,0.78,21.53,6.58,1.13,5.98,6.6,3.28,3.32,5.32,77.22,20.88,27.94,32545,40116,20466,40,32219,40730,0,
18/08/2020,18:45:56,ERR,ErrD,1,2595,0,899,100,0,8,26,0,4686,19685,1646,0,3.4,3.32,0.78,21.53,6.57,2.73,6.36,6.6,3.28,3.32,5.32,78.77,20.83,27.22,28280,38890,19951,40,24658,37088,0,
18/08/2020,18:45:56,ERR,ErrD,1,2595,0,921,100,0,8,26,0,5202,13044,1811,0,3.45,3.39,0.78,21.47,6.57,2.73,6.36,6.6,3.28,3.32,5.32,73.8,20.85,28.94,27922,39618,20156,40,29729,42083,1,
18/08/2020,18:45:57,ERR,ErrD,1,2595,0,943,100,98,8,26,0,6925,14932,1646,0,3.36,3.37,0.78,21.58,6.59,1.22,6.53,6.59,3.3,3.3,5.32,79.33,20.84,27.45,29983,41108,19975,40,29738,43232,0,
18/08/2020,18:45:57,ERR,ErrD,1,2595,0,965,100,0,8,21,0,6925,19545,1482,0,3.32,3.36,0.84,21.68,6.54,1.22,6.53,6.59,3.3,3.3,5.32,78.06,20.86,27.17,25956,32026,19760,40,25919,40804,1,
18/08/2020,18:45:57,ERR,ErrD,1,2595,0,987,100,0,8,23,0,6915,19545,1319,0,3.33,3.34,0.84,21.54,6.57,1.22,6.53,6.59,3.3,3.3,5.32,75.41,20.79,27.71,28583,33708,20103,40,30900,39387,0,
18/08/2020,18:45:57,ERR,ErrD,1,2595,0,1009,100,0,7,23,0,6926,13160,1155,0,3.29,3.32,0.86,21.47,6.58,1.24,6.7,6.59,3.3,3.3,5.32,77.71,20.86,29.5,31210,37314,20378,40,22083,35913,0,
18/08/2020,18:45:57,ERR,ErrD,1,2595,0,1031,100,71,7,23,0,6926,16668,983,0,3.23,3.31,0.86,21.5,6.58,1.24,6.7,6.59,3.28,3.31,5.32,74.29,20.84,27.87,31080,33170,20302,40,23291,39508,0,
18/08/2020,18:45:58,ERR,ErrD,1,2595,0,1053,100,71,7,23,0,6903,16668,820,0,3.21,3.26,0.86,21.52,6.59,1.13,6.86,6.59,3.28,3.31,5.32,75.69,20.83,27.95,33429,34369,20270,40,22025,41968,0,
18/08/2020,18:45:58,ERR,ErrD,1,2595,0,1075,100,71,7,19,0,6117,16668,664,0,3.21,3.25,0.87,21.56,6.59,1.13,6.86,6.59,3.28,3.31,5.32,75.18,20.83,28.04,28295,36065,19848,40,24559,32202,1,
18/08/2020,18:45:58,ERR,ErrD,1,2537,59,1096,100,7,7,19,0,6117,19221,500,0,3.21,3.24,0.87,21.49,6.55,1.13,6.86,6.59,3.29,3.3,5.32,73.39,20.84,28.13,29096,34370,20015,40,22090,42060,0,
18/08/2020,18:45:58,ERR,ErrD,1,2537,59,1118,100,0,7,19,0,8315,12914,327,0,3.12,3.2,0.81,21.51,6.57,1.64,7.09,6.59,3.29,3.3,5.32,77.41,20.82,27.8,29770,28687,20275,40,19472,42016,0,
18/08/2020,18:45:58,ERR,ErrD,1,2537,59,1140,100,0,7,19,0,6920,12914,172,0,3.23,3.18,0.81,21.52,6.56,1.64,7.09,6.59,3.29,3.3,5.32,78.87,20.85,28.31,26601,34293,19983,40,23287,44651,0,
18/08/2020,18:45:59,ERR,ErrD,1,2537,59,1162,100,6,7,28,0,6920,19041,336,0,3.2,3.16,0.81,21.49,6.59,1.11,7.24,6.59,3.29,3.3,5.32,77.07,20.83,28.42,30072,38308,19904,40,20830,44712,0,
18/08/2020,18:45:59,ERR,ErrD,1,2537,59,1184,100,6,7,28,0,6920,19041,491,0,3.15,3.12,0.86,21.55,6.57,1.11,7.24,6.6,3.29,3.31,5.32,73.55,20.9,28.53,34257,39016,19876,40,28359,45875,1,
18/08/2020,18:45:59,ERR,ErrD,1,2537,59,1206,100,0,7,28,0,6906,12943,656,0,3.1,3.13,0.86,21.58,6.6,1.11,7.24,6.6,3.29,3.31,5.32,74.87,20.85,28.26,30467,29150,20666,40,20706,35761,0,
18/08/2020,18:45:59,ERR,ErrD,1,2537,59,1228,100,47,7,28,0,6901,17396,820,0,3.04,3.1,0.84,21.51,6.58,1.19,7.41,6.6,3.29,3.31,5.32,76.12,20.85,28.68,28723,32016,20648,40,25798,39545,1,
18/08/2020,18:45:59,ERR,ErrD,1,2537,59,1250,100,47,7,20,0,6901,17396,992,0,3.22,3.08,0.84,21.51,6.55,1.19,7.41,6.59,3.29,3.3,5.32,75.83,20.81,28.79,34298,33542,21155,40,20746,40922,0,
18/08/2020,18:46:00,ERR,ErrD,1,2537,59,1272,100,47,7,20,0,5205,17396,1155,0,3.15,3.04,0.84,21.49,6.58,1.16,7.57,6.59,3.29,3.3,5.32,78.51,20.9,28.85,29445,33578,20303,40,18185,42081,1,
18/08/2020,18:46:00,ERR,ErrD,1,2537,59,1295,100,47,7,19,0,6918,17396,1319,0,3.09,3.03,0.86,21.53,6.57,1.16,7.57,6.59,3.29,3.3,5.32,75.75,20.84,28.97,30134,36762,20086,40,24518,43321,0,
18/08/2020,18:46:00,ERR,ErrD,1,2444,29,1317,100,0,7,20,0,6923,12550,1482,0,3.07,3.01,0.86,21.51,6.55,1.16,7.57,6.59,3.29,3.3,5.32,78.33,20.86,28.94,25414,31812,20550,40,22059,35804,0,
18/08/2020,18:46:00,ERR,ErrD,1,2444,29,1339,100,91,7,20,0,6909,15242,1646,0,3.09,3.01,0.86,21.6,6.56,1.3,7.75,6.6,3.29,3.31,5.32,76.35,20.84,29.08,21473,33640,20279,40,18177,38377,0,
18/08/2020,18:46:00,ERR,ErrD,1,2444,29,1360,100,27,7,20,0,6902,17830,1811,0,3.44,3,0.86,21.54,6.57,1.3,7.75,6.6,3.29,3.31,5.32,77.75,20.86,29.09,35445,34195,20185,40,24620,40850,0,
18/08/2020,18:46:01,ERR,ErrD,1,2444,29,1382,100,8,7,20,0,6902,18596,1646,0,3.36,2.98,0.86,21.54,6.57,1.82,8,6.6,3.29,3.31,5.32,75.88,20.84,29.17,26319,33819,20484,40,25883,39517,0,
18/08/2020,18:46:01,ERR,ErrD,1,2444,29,1404,100,0,7,20,0,8330,13003,1482,0,3.32,2.96,0.85,21.53,6.57,1.82,8,6.59,3.29,3.3,5.32,77.04,20.8,29.3,28661,38483,20119,40,28362,43222,0,
18/08/2020,18:46:01,ERR,ErrD,1,2444,29,1426,100,0,7,20,0,8324,19449,1310,0,3.26,2.96,0.85,21.55,6.56,1.82,8,6.59,3.29,3.3,5.32,79.6,20.83,29.37,28905,23568,20566,40,27052,35872,0,
18/08/2020,18:46:01,ERR,ErrD,1,2444,29,1448,100,0,7,20,0,8312,19449,1146,0,3.17,2.92,0.86,21.51,6.59,1.12,8.16,6.59,3.29,3.3,5.32,75.67,20.85,29.44,27020,32620,20138,40,25840,35858,1,
18/08/2020,18:46:01,ERR,ErrD,1,2444,29,1470,100,0,7,20,0,5202,19449,992,0,3.19,2.9,0.86,21.53,6.56,1.12,8.16,6.59,3.29,3.3,5.32,79.83,20.87,29.66,28073,21559,20003,40,23283,39423,0,
18/08/2020,18:46:02,ERR,ErrD,1,2444,29,1493,100,0,7,20,0,7928,19449,820,0,3.12,2.87,0.86,21.56,6.57,1.13,8.32,6.58,3.28,3.3,5.32,80.29,20.87,29.74,33255,29070,20896,40,49673,44530,1,
18/08/2020,18:46:02,ERR,ErrD,1,2444,29,1515,100,0,7,20,0,8313,13319,656,0,3.09,2.86,0.88,21.69,6.54,1.13,8.32,6.58,3.28,3.3,5.32,72.39,20.89,31.1,27178,27533,23450,40,57246,57055,0,
18/08/2020,18:46:02,ERR,ErrD,1,2355,0,1537,100,0,7,20,0,6907,13319,491,0,3.06,2.85,0.88,21.58,6.55,1.13,8.32,6.58,3.28,3.3,5.32,77.65,20.84,29.99,26780,39563,18878,40,54891,60931,1,
18/08/2020,18:46:02,ERR,ErrD,1,2355,0,1559,100,86,7,20,0,6919,16237,327,0,2.97,2.74,0.86,21.61,6.55,1.26,8.49,6.59,3.29,3.3,5.32,81.59,20.86,30.24,25582,43882,18078,40,3982,59872,1,
18/08/2020,18:46:02,ERR,ErrD,1,2355,0,1581,100,0,7,20,0,6903,20635,172,0,2.98,2.81,0.86,21.68,6.52,1.26,8.49,6.59,3.29,3.3,5.32,78.66,20.9,30.59,26494,43554,18670,40,7431,4886,0,
18/08/2020,18:46:03,ERR,ErrD,1,2355,0,1603,100,0,7,20,0,6630,13544,336,0,3,2.68,0.86,21.61,6.57,1.61,8.72,6.59,3.29,3.3,5.32,79.95,20.83,30.71,27294,40285,20131,40,6356,4678,1,
18/08/2020,18:46:03,ERR,ErrD,1,2355,0,1625,100,0,7,20,0,4688,13544,500,0,2.95,2.65,0.86,21.8,6.55,1.61,8.72,6.59,3.29,3.3,5.32,76.91,20.83,31.04,23750,42201,17619,40,2372,61669,1,
18/08/2020,18:46:03,ERR,ErrD,1,2355,0,1647,100,0,7,20,0,4688,13544,664,0,2.93,2.64,0.86,21.76,6.57,1.61,8.72,6.57,3.27,3.3,5.32,77.16,20.84,31.29,23478,42733,20440,40,64413,56484,1,
18/08/2020,18:46:03,ERR,ErrD,1,2355,0,1669,100,100,7,20,0,7633,14933,820,0,2.96,2.63,0.85,21.56,6.59,1.47,8.92,6.57,3.27,3.3,5.32,77.7,20.87,31.38,30945,38593,20315,40,64229,6272,1,
18/08/2020,18:46:03,ERR,ErrD,1,2355,0,1691,100,6,7,20,0,6904,19665,992,0,3.03,2.6,0.85,21.59,6.57,1.47,8.92,6.57,3.27,3.3,5.32,75.65,20.85,31.48,28577,40094,19554,40,58530,12385,0,
18/08/2020,18:46:04,ERR,ErrD,1,2355,0,1713,100,0,7,20,0,7634,13414,1155,0,3.01,2.59,0.85,21.58,6.58,2.56,9.28,6.57,3.27,3.3,5.32,74.41,20.89,31.59,26760,45286,22053,40,63340,63580,1,
18/08/2020,18:46:04,ERR,ErrD,1,2355,0,1735,100,0,7,20,0,5204,13414,1319,0,2.99,2.59,0.82,21.55,6.51,2.56,9.28,6.57,3.28,3.3,5.32,79.31,20.85,31.71,26013,42182,21209,40,23238,19596,0,
18/08/2020,18:46:04,ERR,ErrD,1,2322,29,1756,100,82,7,20,0,5204,16501,1475,0,2.99,2.55,0.82,21.6,6.55,2.56,9.28,6.57,3.28,3.3,5.32,75.28,20.89,31.77,33298,41584,16283,40,14293,2504,1,
18/08/2020,18:46:04,ERR,ErrD,1,2322,29,1778,100,22,7,28,0,5204,18898,1646,0,2.95,2.54,0.85,21.6,6.58,1.26,9.46,6.57,3.28,3.3,5.32,76.41,20.87,31.84,29397,39251,20950,40,6844,2803,1,
18/08/2020,18:46:04,ERR,ErrD,1,2322,29,1800,100,0,7,28,0,10329,13400,1811,0,2.92,2.53,0.85,21.56,6.5,1.26,9.46,6.58,3.29,3.3,5.32,74.81,20.84,31.88,24519,45936,20943,40,64284,61893,1,
18/08/2020,18:46:05,ERR,ErrD,1,2322,29,1822,100,0,7,28,0,8315,13495,1646,0,2.89,2.5,0.85,21.52,6.56,1.16,9.62,6.58,3.29,3.3,5.32,76.44,20.8,31.53,28416,35846,17451,40,63427,61484,1,
18/08/2020,18:46:05,ERR,ErrD,1,2322,29,1844,100,71,7,28,0,8133,16895,1482,0,2.86,2.49,0.84,21.53,6.56,1.16,9.62,6.58,3.29,3.3,5.32,74.85,20.81,34.66,27411,43399,21708,40,63192,60330,1,
18/08/2020,18:46:05,ERR,ErrD,1,2322,29,1866,100,71,7,23,0,8317,16895,1319,0,2.83,2.47,0.84,21.56,6.58,1.16,9.62,6.58,3.29,3.3,5.32,76.48,20.9,32.12,28987,45439,19229,40,2647,22106,1,
18/08/2020,18:46:05,ERR,ErrD,1,2322,29,1888,100,71,7,23,0,5204,16895,1155,0,3.03,2.49,0.86,21.59,6.51,1.55,9.83,6.58,3.29,3.3,5.32,74.56,20.83,32.24,27558,40269,16056,40,4021,5340,1,
18/08/2020,18:46:05,ERR,ErrD,1,2322,29,1910,100,0,7,23,0,8321,13400,992,0,2.97,2.45,0.86,21.61,6.54,1.55,9.83,6.58,3.29,3.3,5.32,75.54,20.91,32.28,28499,39428,20444,40,1180,50624,1,
18/08/2020,18:46:06,ERR,ErrD,1,2322,29,1931,100,0,7,23,0,6920,21105,828,0,2.93,2.45,0.86,21.68,6.55,1.17,10,6.58,3.29,3.3,5.32,75.93,20.91,32.36,28086,40823,22687,40,9209,58073,0,
18/08/2020,18:46:06,ERR,ErrD,1,2322,29,1953,100,0,7,20,0,6920,21105,664,0,2.92,2.46,0.81,21.66,6.51,1.17,10,6.57,3.28,3.3,5.32,79.59,20.94,32.38,28395,39358,16616,40,52230,4249,1,
18/08/2020,18:46:06,ERR,ErrD,1,2199,29,1975,100,0,7,20,0,5201,21105,500,0,3.07,2.46,0.81,21.68,6.54,1.17,10,6.57,3.28,3.3,5.32,73.09,20.86,32.47,31022,50944,21128,40,62535,59400,1,
18/08/2020,18:46:06,ERR,ErrD,1,2199,29,1997,100,0,7,20,0,4909,21105,336,0,3.04,2.46,0.85,21.65,6.51,1.57,10.21,6.57,3.28,3.3,5.32,76.88,20.85,32.56,24816,47399,21291,40,2610,18567,1,
18/08/2020,18:46:06,ERR,ErrD,1,2199,29,2019,100,100,94,20,0,8316,13400,172,0,3.15,2.43,0.85,21.63,6.52,1.57,10.21,6.57,3.28,3.3,5.32,76.21,20.87,32.63,26602,39618,18698,40,63445,14660,1,
18/08/2020,18:46:07,ERR,ErrD,1,2199,29,2041,100,100,95,21,0,6921,13400,336,0,3.13,2.41,0.85,21.63,6.54,2.32,10.54,6.57,3.28,3.3,5.32,75.36,20.87,32.68,30124,52138,23653,40,62638,63373,1,
18/08/2020,18:46:07,ERR,ErrD,1,2199,29,2063,100,100,96,21,0,6627,13400,491,0,3.08,2.39,0.87,21.65,6.54,2.32,10.54,6.57,3.28,3.3,5.32,76.8,20.88,32.77,27722,40580,16287,40,2531,63026,1,
18/08/2020,18:46:07,ERR,ErrD,1,2199,29,2085,100,95,97,21,0,8308,13850,656,0,3.05,2.39,0.87,21.63,6.56,2.32,10.54,6.57,3.28,3.3,5.32,76.73,20.86,32.82,26776,43558,20566,40,2001,63015,0,
18/08/2020,18:46:07,ERR,ErrD,1,2199,29,2107,100,100,98,21,0,8325,13400,828,0,2.98,2.36,0.87,21.62,6.57,2.75,10.92,6.58,3.27,3.31,5.32,78.3,20.83,32.93,29387,47199,22015,40,11867,6467,0,
18/08/2020,18:46:07,ERR,ErrD,1,2199,29,2129,100,100,99,20,0,8318,13400,992,0,2.97,2.37,0.87,21.68,6.52,2.75,10.92,6.58,3.27,3.31,5.32,81.45,20.88,32.99,22520,43411,14209,40,42147,4220,1,
18/08/2020,18:46:08,ERR,ErrD,1,2199,29,2151,100,100,99,20,0,8314,13584,1146,0,3.08,2.35,0.87,21.65,6.55,1.29,11.1,6.58,3.27,3.31,5.32,71.67,20.88,33.04,27941,46729,21193,40,63536,57192,1,
18/08/2020,18:46:08,ERR,ErrD,1,2199,29,2173,100,84,99,20,0,8312,14327,1310,0,3.02,2.35,0.87,21.72,6.56,1.29,11.1,6.58,3.27,3.31,5.32,76.04,20.84,33.09,29930,51706,23775,40,28571,11211,0,
18/08/2020,18:46:08,ERR,ErrD,1,2149,0,2195,100,0,99,20,0,8312,17852,1482,0,2.98,2.34,0.87,21.63,6.57,1.29,11.1,6.57,3.28,3.3,5.32,75.22,20.88,33.17,24617,38935,14564,40,2143,2962,0,
18/08/2020,18:46:08,ERR,ErrD,1,2149,0,2217,100,100,98,20,0,6928,13400,1646,0,2.95,2.36,0.86,21.68,6.54,3.03,11.52,6.57,3.28,3.3,5.32,76.08,20.86,33.26,26133,44656,22247,40,1831,61235,0,
18/08/2020,18:46:08,ERR,ErrD,1,2149,0,2239,100,77,98,20,0,8328,14580,1802,0,3,2.35,0.86,21.75,6.5,3.03,11.52,6.57,3.28,3.3,5.32,73.79,20.97,33.38,30206,46889,19899,40,842,2789,0,
18/08/2020,18:46:09,ERR,ErrD,1,2149,0,2262,100,34,98,25,0,7933,16304,1646,0,2.95,2.34,0.86,21.69,6.54,1.14,11.68,6.57,3.28,3.3,5.32,71.65,20.88,33.41,24836,39871,14779,40,64015,7977,0,
18/08/2020,18:46:09,ERR,ErrD,1,2149,0,2284,100,34,98,25,0,7933,16304,1482,0,2.92,2.33,0.88,21.76,6.54,1.14,11.68,6.56,3.26,3.3,5.32,73.37,20.89,33.55,25586,45241,23418,40,62376,61597,0,
18/08/2020,18:46:09,ERR,ErrD,1,2149,0,2306,100,100,98,25,0,8328,13400,1319,0,2.87,2.31,0.88,21.59,6.57,1.14,11.68,6.56,3.26,3.3,5.32,75.35,20.84,33.63,26704,49671,21157,40,13491,62813,0,
18/08/2020,18:46:09,ERR,ErrD,1,2149,0,2328,100,0,99,25,0,6906,18006,1155,0,2.86,2.3,0.86,21.71,6.54,3.26,12.13,6.56,3.26,3.3,5.32,78.05,20.94,33.72,29347,43907,15630,40,1269,53305,0,
18/08/2020,18:46:09,ERR,ErrD,1,2149,0,2350,100,0,95,20,0,6906,18006,992,0,2.85,2.31,0.86,21.66,6.53,3.26,12.13,6.56,3.28,3.29,5.32,78.24,20.91,33.8,24948,50622,22501,40,4274,49134,0,
18/08/2020,18:46:10,ERR,ErrD,1,2149,0,2372,100,0,90,20,0,5204,18006,828,0,2.85,2.29,0.86,21.75,6.54,1.17,12.3,6.56,3.28,3.29,5.32,73.94,20.9,33.91,25919,43784,17711,40,2728,3156,0,
18/08/2020,18:46:10,ERR,ErrD,1,2149,0,2392,99,100,86,46,0,5210,10365,656,0,2.9,2.29,0.83,21.75,6.52,1.17,12.3,6.56,3.28,3.29,5.32,76.78,20.85,34,24760,44502,17971,40,53234,9043,1,
18/08/2020,18:46:10,ERR,ErrD,1,2088,0,2414,99,100,84,46,0,8335,13400,491,0,2.79,2.24,0.83,21.74,6.55,1.17,12.3,6.56,3.28,3.29,5.32,77.18,20.87,34.09,24942,46001,24569,40,63560,62875,0,
18/08/2020,18:46:10,ERR,ErrD,1,2088,0,2436,99,0,85,46,0,6906,20689,327,0,2.8,2.23,0.84,21.62,6.57,1.81,12.55,6.57,3.27,3.3,5.32,77.3,20.9,34.15,29574,47716,16719,40,1873,62648,0,
18/08/2020,18:46:11,ERR,ErrD,1,2088,0,2458,99,0,90,46,0,6906,20689,172,0,2.98,2.24,0.84,21.66,6.5,1.81,12.55,6.57,3.27,3.3,5.32,75.67,20.91,34.2,30387,38840,20158,40,20973,60932,0,
18/08/2020,18:46:11,ERR,ErrD,1,2088,0,2480,100,0,97,21,0,5204,20689,336,0,2.97,2.24,0.84,21.66,6.5,1.19,12.71,6.57,3.27,3.3,5.32,77.28,20.87,34.26,27742,52653,21846,40,14538,18431,1,
18/08/2020,18:46:11,ERR,ErrD,1,2088,0,2501,100,100,97,21,0,8615,13400,500,0,2.86,2.2,0.87,21.8,6.54,1.19,12.71,6.52,3.25,3.27,5.32,75.78,20.93,34.31,26840,42281,14926,40,3204,4568,1,
18/08/2020,18:46:11,ERR,ErrD,1,2088,0,2522,99,100,97,21,0,8602,10380,664,0,3.11,2.25,0.87,21.83,6.46,1.19,12.71,6.52,3.25,3.27,5.32,78.06,20.89,34.4,23963,45389,21755,40,64114,52584,0,
18/08/2020,18:46:11,ERR,ErrD,1,2088,0,2544,99,100,97,21,0,5204,11726,828,0,2.99,2.19,0.87,21.67,6.55,3.81,13.24,6.52,3.25,3.27,5.32,71.62,20.85,34.43,30288,50274,22085,40,17187,63695,1,
18/08/2020,18:46:12,ERR,ErrD,1,2088,0,2566,99,7,97,21,0,8315,17402,992,0,2.94,2.18,0.87,21.66,6.55,3.81,13.24,6.52,3.25,3.27,5.32,73.51,20.88,34.47,24465,34999,15258,40,1190,63953,0,
18/08/2020,18:46:12,ERR,ErrD,1,2088,0,2588,99,7,97,21,0,8315,17402,1163,0,2.9,2.16,0.87,21.74,6.51,2.64,13.61,6.55,3.26,3.29,5.32,76.88,20.89,34.52,28806,48202,23169,40,790,62687,1,
18/08/2020,18:46:12,ERR,ErrD,1,2088,0,2610,100,100,99,21,0,8335,13400,1319,0,2.86,2.15,0.85,21.69,6.55,2.64,13.61,6.55,3.26,3.29,5.32,76.59,20.89,34.61,34835,49425,20433,40,1070,8778,0,
18/08/2020,18:46:12,ERR,ErrD,1,2088,0,2632,100,83,99,23,0,8314,14360,1482,0,2.9,2.14,0.85,21.77,6.53,2.64,13.61,6.55,3.26,3.29,5.32,78.3,20.9,34.67,24298,40271,15185,40,47387,6156,1,
18/08/2020,18:46:12,ERR,ErrD,1,2088,0,2654,100,17,98,23,0,7632,16985,1655,0,2.87,2.12,0.86,21.67,6.56,1.14,13.77,6.56,3.27,3.29,5.32,75.04,20.89,34.79,26981,46428,20189,40,898,58746,1,
18/08/2020,18:46:13,ERR,ErrD,1,2088,0,2676,100,17,99,23,0,5209,16985,1802,0,2.85,2.13,0.86,21.74,6.52,1.14,13.77,6.56,3.27,3.29,5.32,74.74,20.88,34.81,23883,43136,15721,40,1482,62547,1,
18/08/2020,18:46:13,ERR,ErrD,1,2088,0,2698,100,17,98,23,0,5203,16985,1638,0,2.81,2.11,0.86,21.73,6.53,1.91,14.04,6.56,3.27,3.29,5.32,74.46,20.91,34.89,35461,42657,19584,40,643,64139,1,
18/08/2020,18:46:13,ERR,ErrD,1,2088,0,2720,100,100,97,20,0,6906,13400,1475,0,2.76,2.09,0.81,21.72,6.54,1.91,14.04,6.56,3.27,3.29,5.32,77.44,20.99,34.9,31637,47324,22467,40,1726,18672,1,
18/08/2020,18:46:13,ERR,ErrD,1,2088,0,2742,100,100,98,20,0,6902,13400,1310,0,2.74,2.09,0.81,21.67,6.49,1.91,14.04,6.56,3.27,3.29,5.32,76.53,20.89,34.98,28138,49907,22467,40,9832,13160,1,
18/08/2020,18:46:13,ERR,ErrD,1,2088,0,2764,100,100,98,20,0,6621,13400,1146,0,2.75,2.08,0.83,21.59,6.52,2.29,14.35,6.56,3.27,3.29,5.32,77.81,20.91,35.02,32049,35212,20604,40,3485,60529,1,
18/08/2020,18:46:14,ERR,ErrD,1,2088,0,2787,100,55,99,20,0,6920,15469,976,0,2.66,2.05,0.83,21.61,6.56,2.29,14.35,6.56,3.27,3.29,5.32,76.59,20.89,35.08,33574,32924,19954,40,53680,27241,1,
18/08/2020,18:46:14,ERR,ErrD,1,2088,0,2809,100,100,99,20,0,8342,13400,820,0,2.61,1.93,0.83,21.55,6.57,1.13,14.51,6.57,3.28,3.3,5.32,75.44,20.89,35.12,26621,35998,19896,40,4235,39451,0,
18/08/2020,18:46:14,ERR,ErrD,1,2088,0,2831,100,100,99,26,0,4914,13400,664,0,2.56,1.92,0.86,21.52,6.57,1.13,14.51,6.57,3.28,3.3,5.32,74.69,20.95,35.14,33825,36183,20354,40,2858,38386,0,
18/08/2020,18:46:14,ERR,ErrD,1,1759,29,2853,100,0,98,27,0,6903,18256,491,0,2.5,1.89,0.86,21.47,6.56,1.13,14.51,6.57,3.28,3.3,5.32,78.6,20.92,35.24,25764,18323,20242,40,207,35760,0,
18/08/2020,18:46:14,ERR,ErrD,1,1759,29,2875,100,0,97,27,0,6903,18256,320,0,2.46,1.88,0.84,21.49,6.57,1.6,14.73,6.57,3.28,3.3,5.32,80.03,20.97,35.31,4305,14314,20233,40,155,65223,0,
18/08/2020,18:46:15,ERR,ErrD,1,1759,29,2897,100,0,97,27,0,8325,18256,180,0,2.4,1.86,0.84,21.5,6.57,1.6,14.73,6.58,3.28,3.3,5.32,74.92,20.92,35.37,329,303,20268,40,172,65239,0,
18/08/2020,18:46:15,ERR,ErrD,1,1759,29,2919,100,100,97,27,0,6899,13400,336,0,2.37,1.85,0.84,21.5,6.57,1.14,14.89,6.58,3.28,3.3,5.32,71.68,20.9,35.4,435,246,20263,40,168,65248,0,
18/08/2020,18:46:15,ERR,ErrD,1,1759,29,2940,100,0,97,19,0,6899,17831,500,0,2.35,1.84,0.85,21.42,6.56,1.14,14.89,6.58,3.28,3.3,5.32,73.66,20.95,35.43,405,296,20267,40,163,65247,0,
18/08/2020,18:46:15,ERR,ErrD,1,1759,29,2962,100,0,97,19,0,6899,20059,672,0,2.29,1.82,0.85,21.47,6.59,1.14,14.89,6.58,3.28,3.3,5.32,77.25,20.97,35.44,401,276,20280,40,162,65251,0,
18/08/2020,18:46:15,ERR,ErrD,1,1759,29,2984,100,0,96,20,0,6899,20059,836,0,2.26,1.82,0.85,21.48,6.57,1.27,15.07,6.58,3.29,3.3,5.32,76.05,20.96,35.49,406,276,20284,40,160,65258,0,
18/08/2020,18:46:16,ERR,ErrD,1,1759,29,3006,100,100,96,20,0,8606,13400,992,0,2.22,1.8,0.85,21.49,6.59,1.27,15.07,6.58,3.29,3.3,5.32,74.17,20.98,35.54,391,274,20282,40,161,65256,0,
18/08/2020,18:46:16,ERR,ErrD,1,1759,29,3028,100,0,96,29,0,5202,20186,1163,0,2.17,1.81,0.85,21.47,6.57,1.13,15.23,6.58,3.29,3.3,5.32,78.47,20.93,35.54,394,283,20279,40,158,65257,0,
18/08/2020,18:46:16,ERR,ErrD,1,1759,29,3050,100,0,98,29,0,5202,20186,1326,0,2.15,1.79,0.84,21.43,6.56,1.13,15.23,6.58,3.28,3.3,5.32,74.89,20.95,35.57,401,289,20265,40,166,65257,0,
18/08/2020,18:46:16,ERR,ErrD,0,0,0,3072,100,0,98,29,0,8312,20186,1491,0,2.13,1.78,0.84,21.44,6.58,1.13,15.23,6.58,3.28,3.3,5.32,74.75,20.87,35.62,397,274,20265,40,161,65249,0,
18/08/2020,18:46:16,ERR,ErrD,0,0,0,3088,100,100,98,29,0,7948,10000,1614,0,2.11,1.77,0.84,21.45,6.59,1.12,15.38,6.58,3.28,3.3,5.32,76.04,20.97,35.67,403,273,20277,40,164,65256,0,
18/08/2020,18:46:17,ERR,ErrD,0,0,0,3103,100,100,91,29,0,8618,10000,1786,0,2.07,1.77,0.84,21.43,6.56,1.12,15.38,6.58,3.28,3.3,5.32,76.22,20.95,35.69,402,266,20271,40,166,65261,0,
18/08/2020,18:46:17,ERR,ErrD,0,0,0,3118,100,100,87,19,0,8602,10000,1662,0,2.05,1.77,0.86,21.46,6.56,1.12,15.55,6.58,3.28,3.3,5.32,74.63,20.97,35.63,400,273,20273,40,165,65248,0,
18/08/2020,18:46:17,ERR,ErrD,0,0,0,3133,100,0,0,19,0,8329,10000,1491,0,2.02,1.76,0.86,21.46,6.59,1.12,15.55,6.58,3.28,3.3,5.32,74.13,20.93,35.7,398,274,20283,40,164,65253,0,
18/08/2020,18:46:17,ERR,ErrD,0,0,0,3148,99,0,0,19,0,8603,10000,1319,0,1.98,1.76,0.86,21.43,6.57,1.12,15.55,6.58,3.28,3.3,5.32,75.94,20.94,35.74,402,277,20259,40,163,65260,0,
18/08/2020,18:46:17,ERR,ErrD,0,0,0,3162,99,0,0,19,0,10000,10000,1146,0,1.95,1.74,0.84,21.47,6.58,1.11,15.71,6.58,3.28,3.3,5.32,76.85,20.92,35.72,407,273,20270,40,158,65252,0,
18/08/2020,18:46:18,ERR,ErrD,0,0,0,3178,99,0,0,19,0,8320,10000,976,0,1.93,1.75,0.84,21.44,6.56,1.11,15.71,6.58,3.28,3.3,5.32,74.91,20.98,35.73,406,287,20265,40,157,65254,0,
18/08/2020,18:46:18,ERR,ErrD,0,0,0,3191,99,0,0,19,0,8605,10000,795,0,1.91,1.73,0.85,21.49,6.57,1.18,15.89,6.58,3.28,3.3,5.32,78.5,20.97,35.76,404,275,20274,40,163,65254,0,
18/08/2020,18:46:18,ERR,ErrD,0,0,0,3206,99,100,0,98,0,8604,22776,631,0,1.86,1.7,0.85,21.41,6.58,1.18,15.89,6.58,3.28,3.3,5.32,75.27,20.94,35.77,395,282,20261,40,163,65255,0,
18/08/2020,18:46:18,ERR,ErrD,0,0,0,3220,99,81,0,98,0,6921,10000,459,0,1.83,1.69,0.85,21.5,6.59,1.18,15.89,6.58,3.28,3.3,5.32,76.63,20.97,35.78,405,269,20274,40,161,65249,0,
18/08/2020,18:46:18,ERR,ErrD,0,0,0,3233,99,0,40,98,0,6921,10000,279,0,1.81,1.67,0.85,21.46,6.54,1.24,16.06,6.58,3.28,3.3,5.32,77.96,20.98,35.75,400,271,20263,40,165,65252,0,
18/08/2020,18:46:19,ERR,ErrD,0,0,0,3247,100,0,40,98,0,6906,22798,221,0,1.78,1.66,0.85,21.44,6.58,1.24,16.06,6.59,3.29,3.3,5.32,75.88,20.94,35.78,398,282,20268,40,166,65252,0,
18/08/2020,18:46:19,ERR,ErrD,0,0,0,3261,100,0,41,98,0,6906,10000,393,0,1.75,1.65,0.85,21.46,6.57,1.28,16.26,6.59,3.29,3.3,5.32,79.01,20.98,35.77,407,274,20283,40,164,65252,0,
18/08/2020,18:46:19,ERR,ErrD,0,0,0,3275,100,0,37,98,0,6906,10000,573,0,1.72,1.63,0.85,21.47,6.57,1.28,16.26,6.59,3.29,3.3,5.32,75.28,21.01,35.79,406,281,20277,40,160,65258,0,
18/08/2020,18:46:19,ERR,ErrD,0,0,0,3289,100,0,37,98,0,5277,10000,738,0,1.7,1.62,0.85,21.48,6.56,1.28,16.26,6.59,3.29,3.3,5.32,79.58,20.96,35.81,404,274,20278,40,166,65255,0,
18/08/2020,18:46:20,ERR,ErrD,0,0,0,3304,100,0,38,98,0,8331,10000,918,0,1.68,1.6,0.84,21.52,6.58,1.11,16.41,6.59,3.29,3.3,5.32,75.84,20.92,35.81,400,274,20265,40,163,65254,0,
18/08/2020,18:46:20,ERR,ErrD,0,0,0,3317,100,0,37,97,0,8331,10000,1089,0,1.66,1.61,0.84,21.44,6.57,1.11,16.41,6.59,3.29,3.3,5.32,77.95,20.95,35.81,411,275,20288,40,159,65260,0,
18/08/2020,18:46:20,ERR,ErrD,0,0,0,3331,100,0,38,97,0,8331,10000,1260,0,1.65,1.61,0.84,21.46,6.58,1.23,16.6,6.59,3.29,3.3,5.32,76.56,20.95,35.83,1798,400,20319,40,14212,52583,0,
18/08/2020,18:46:20,ERR,ErrD,0,0,0,3346,100,0,38,97,0,8350,10000,1433,0,1.63,1.59,0.84,21.46,6.56,1.23,16.6,6.59,3.29,3.3,5.32,71.58,20.98,35.81,24525,41112,20169,40,24436,65336,0,
18/08/2020,18:46:20,ERR,ErrD,0,0,0,3360,100,0,38,19,0,8607,10000,1605,0,1.61,1.58,0.84,21.45,6.58,1.23,16.6,6.59,3.29,3.3,5.32,74.19,20.94,35.84,246,11779,20256,40,223,65234,0,
18/08/2020,18:46:21,ERR,ErrD,0,0,29,3372,100,0,38,104,0,5205,10000,1778,0,1.61,1.58,0.84,21.43,6.57,1.12,16.76,6.59,3.29,3.3,5.32,78.29,20.95,35.82,439,224,20257,40,177,65163,0,
18/08/2020,18:46:21,ERR,ErrD,0,0,29,3384,100,0,44,104,0,5205,22938,1671,0,1.59,1.56,0.84,21.41,6.6,1.12,16.76,6.59,3.29,3.3,5.32,77.17,21.02,35.83,384,230,20249,40,180,65206,0,
18/08/2020,18:46:21,ERR,ErrD,0,0,29,3398,100,0,44,104,0,5205,10000,1498,0,1.57,1.56,0.84,21.47,6.57,1.11,16.93,6.59,3.29,3.3,5.32,70.16,20.91,35.83,393,287,20255,40,170,65219,0,
18/08/2020,18:46:21,ERR,ErrD,0,0,29,3411,100,0,42,104,0,6921,10000,1326,0,1.56,1.56,0.84,21.44,6.54,1.11,16.93,6.59,3.29,3.3,5.32,77.56,20.91,35.85,443,298,20281,40,169,65247,0,
18/08/2020,18:46:21,ERR,ErrD,0,0,29,3423,100,0,40,104,0,8605,10000,1155,0,1.53,1.54,0.84,21.45,6.57,1.11,16.93,6.58,3.29,3.3,5.32,73.22,21.02,35.84,438,284,20288,40,156,65267,0,
18/08/2020,18:46:22,ERR,ErrD,0,0,29,3437,100,0,41,104,0,8566,10000,983,0,1.5,1.53,0.84,21.48,6.56,1.36,17.12,6.58,3.29,3.3,5.32,75.19,20.93,35.83,6723,6702,20209,40,153,65222,0,
18/08/2020,18:46:22,ERR,ErrD,0,0,29,3451,100,0,41,104,0,5277,10000,811,0,1.5,1.53,0.84,21.59,6.57,1.36,17.12,6.58,3.29,3.3,5.32,73.99,20.98,35.84,28341,4116,20195,40,170,33283,0,
18/08/2020,18:46:22,ERR,ErrD,0,0,29,3466,100,75,0,104,0,5209,10000,638,0,1.46,1.51,0.85,21.57,6.55,1.88,17.4,6.58,3.29,3.3,5.32,75.01,20.98,35.88,719,430,20297,40,485,65172,0,
18/08/2020,18:46:22,ERR,ErrD,0,0,29,3479,100,0,0,19,0,5209,10000,467,0,1.43,1.49,0.85,21.57,6.52,1.88,17.4,6.58,3.29,3.3,5.32,76.63,20.95,35.8,754,613,20308,40,380,65291,0,
18/08/2020,18:46:22,ERR,ErrD,0,0,29,3493,100,0,0,19,0,6928,23483,295,0,1.4,1.49,0.85,21.59,6.55,1.88,17.4,6.57,3.27,3.3,5.32,75.01,20.96,35.86,666,15808,20222,40,574,65151,0,
18/08/2020,18:46:23,ERR,ErrD,0,0,0,3507,100,0,0,26,0,8606,10000,221,0,1.39,1.48,0.85,21.56,6.53,1.11,17.56,6.57,3.27,3.3,5.32,76.61,20.94,35.85,3201,1178,20351,40,34989,33335,1,
18/08/2020,18:46:23,ERR,ErrD,0,0,0,3521,100,92,0,98,0,8605,23481,393,0,1.35,1.45,0.85,21.59,6.59,1.11,17.56,6.57,3.27,3.3,5.32,81.51,20.95,35.85,10731,1948,20183,40,917,2790,0,
18/08/2020,18:46:23,ERR,ErrD,0,0,0,3534,100,81,0,98,0,6921,10000,557,0,1.35,1.46,0.82,21.53,6.54,1.09,17.72,6.57,3.27,3.3,5.32,76.56,20.93,35.87,7142,1981,20139,40,57957,62715,0,
18/08/2020,18:46:23,ERR,ErrD,0,0,0,3548,100,81,0,98,0,6920,10000,738,0,1.32,1.45,0.82,21.52,6.57,1.09,17.72,6.57,3.27,3.3,5.32,78.02,20.9,35.87,35936,13846,20388,40,17949,34672,0,
18/08/2020,18:46:24,ERR,ErrD,0,0,0,3563,100,0,35,98,0,6906,10000,902,0,1.34,1.45,0.82,21.55,6.56,1.09,17.72,6.57,3.27,3.3,5.32,74.73,21.04,35.81,17277,12293,20376,40,44969,33219,0,
18/08/2020,18:46:24,ERR,ErrD,0,0,0,3577,100,0,37,98,0,8622,10000,1073,0,3.14,3.06,0.86,21.76,6.32,2.91,18.13,6.57,3.27,3.3,5.32,75.67,20.93,35.85,25517,28540,21136,40,16786,13294,0,
18/08/2020,18:46:24,ERR,ErrD,0,0,0,3592,100,0,38,98,0,5313,10000,1253,0,3.4,2.98,0.86,21.63,6.57,2.91,18.13,6.57,3.27,3.3,5.32,76.69,20.91,35.87,30764,32227,19897,40,32198,24718,0,
18/08/2020,18:46:24,ERR,ErrD,0,0,0,3606,100,0,37,98,0,8616,10000,1417,0,3.39,2.97,0.88,21.5,6.54,2.07,18.45,6.57,3.29,3.29,5.32,77.4,20.96,35.81,29538,39138,20333,40,23296,50794,0,
18/08/2020,18:46:24,ERR,ErrD,0,0,0,3620,100,0,35,98,0,8615,10000,1597,0,3.36,2.97,0.88,21.59,6.53,2.07,18.45,6.57,3.29,3.29,5.32,73.21,20.98,35.87,29777,35908,21809,40,27097,42019,0,
18/08/2020,18:46:25,ERR,ErrD,0,0,0,3636,100,0,0,19,0,6922,10000,1769,0,3.37,2.95,0.88,21.55,6.55,2.07,18.45,6.57,3.29,3.29,5.32,76.01,20.95,35.86,32136,35877,19767,40,13311,54437,1,
18/08/2020,18:46:25,ERR,ErrD,1,1424,0,3650,100,0,0,20,0,6697,10000,1680,0,3.45,3.03,0.87,21.51,6.57,1.15,18.61,6.57,3.29,3.29,5.32,76.54,20.97,35.86,33080,40986,20246,40,33461,39600,0,
18/08/2020,18:46:25,ERR,ErrD,1,1424,0,3666,100,0,0,20,0,10000,4440,1498,0,3.37,3.02,0.87,21.55,6.55,1.15,18.61,6.58,3.29,3.3,5.32,77.51,20.96,35.82,34567,36091,20527,40,29679,43244,0,
18/08/2020,18:46:25,ERR,ErrD,1,1424,0,3688,100,13,0,20,0,7414,18406,1286,0,3.32,2.99,0.88,21.55,6.57,1.14,18.77,6.58,3.29,3.3,5.32,79.19,20.92,35.66,38895,35641,20277,40,24521,39592,0,
18/08/2020,18:46:25,ERR,ErrD,1,1424,0,3710,100,0,0,20,0,8327,13400,1122,0,3.41,2.98,0.88,21.65,6.54,1.14,18.77,6.58,3.29,3.3,5.32,74.6,20.92,35.83,36600,37192,20116,40,15674,40848,0,
18/08/2020,18:46:26,ERR,ErrD,1,1424,0,3732,100,99,80,20,0,5226,13702,960,0,3.45,3.04,0.88,21.51,6.54,1.14,18.77,6.58,3.28,3.3,5.32,74.07,20.94,35.84,34335,38300,20351,40,23347,40756,0,
18/08/2020,18:46:26,ERR,ErrD,1,1424,0,3754,100,32,89,20,0,6902,16384,803,0,3.35,3.01,0.9,21.54,6.57,1.3,18.95,6.58,3.28,3.3,5.32,78.79,20.97,35.41,30108,38370,20169,40,22059,42109,0,
18/08/2020,18:46:26,ERR,ErrD,1,1424,0,3776,100,0,96,29,0,6902,19679,631,0,3.4,2.98,0.9,21.49,6.57,1.3,18.95,6.58,3.28,3.3,5.32,77.91,20.98,35.91,34495,35950,19871,40,32251,36948,1,
18/08/2020,18:46:26,ERR,ErrD,1,1424,0,3798,100,0,99,29,0,6902,19679,467,0,3.46,3.29,0.79,21.55,6.54,1.73,19.19,6.58,3.28,3.3,5.32,77.53,20.97,35.96,30726,36776,20325,40,32257,44678,0,
18/08/2020,18:46:26,ERR,ErrD,1,1424,0,3820,100,100,99,29,0,8315,13400,302,0,3.44,3.29,0.79,21.59,6.52,1.73,19.19,6.58,3.28,3.3,5.32,76.08,20.99,36.61,29730,39480,20103,40,32240,37022,1,
18/08/2020,18:46:27,ERR,ErrD,1,1424,0,3842,100,100,99,29,0,5203,13608,196,0,3.67,3.73,0.79,21.58,6.57,1.73,19.19,6.58,3.28,3.3,5.32,73.16,20.98,35.92,29773,37101,24998,40,31043,38323,0,
18/08/2020,18:46:27,ERR,ErrD,1,1424,0,3864,100,16,100,19,0,5203,17033,360,0,3.98,3.96,0.89,21.54,6.56,1.97,19.46,6.58,3.28,3.3,5.32,75.71,20.96,35.94,26651,38432,24304,40,28494,36959,0,
18/08/2020,18:46:27,ERR,ErrD,1,2730,0,3886,100,16,100,19,0,6901,17033,524,0,3.87,3.89,0.89,21.53,6.57,1.97,19.46,6.57,3.28,3.3,5.32,78.77,20.99,35.98,25097,34915,23432,40,33525,40905,1,
18/08/2020,18:46:27,ERR,ErrD,1,2730,0,3908,100,100,100,19,0,8315,13400,689,0,4.34,4.18,0.88,21.62,6.54,1.16,19.62,6.57,3.28,3.3,5.32,79.47,21.02,35.95,27995,34243,22078,40,27413,34310,0,
18/08/2020,18:46:28,ERR,ErrD,1,2730,0,3930,100,10,99,19,0,6921,17285,860,0,4.17,4.04,0.88,21.57,6.57,1.16,19.62,6.57,3.28,3.3,5.32,79.55,20.99,36.01,38302,36957,30998,40,29873,38229,0,
18/08/2020,18:46:29,ERR,ErrD,1,2730,0,3952,100,10,99,19,0,6920,17285,1015,0,4.15,4.03,0.88,21.58,6.56,1.16,19.62,6.57,3.28,3.3,5.32,77.94,21.03,36.01,34571,41048,26388,40,29900,34538,1,
18/08/2020,18:46:29,ERR,ErrD,1,2730,0,3974,100,10,99,19,0,5210,17285,1179,0,4.17,4.04,0.8,21.56,6.53,1.6,19.85,6.57,3.27,3.3,5.32,79.03,20.98,36.02,34596,35770,25990,40,26185,46819,1,
18/08/2020,18:46:29,ERR,ErrD,1,2730,0,3996,100,10,99,19,0,6924,17285,1344,0,4.34,4.15,0.8,21.51,6.52,1.6,19.85,6.57,3.27,3.3,5.32,74.81,20.99,36.1,33169,35274,27488,40,31154,39363,0,
18/08/2020,18:46:29,ERR,ErrD,1,2730,0,4018,100,100,99,19,0,5213,13400,1515,0,3.87,3.89,0.88,21.53,6.57,1.48,20.05,6.57,3.27,3.3,5.32,75.23,21.01,36.12,32832,38681,28213,40,28516,35597,1,
18/08/2020,18:46:29,ERR,ErrD,1,2730,0,4040,100,100,99,19,0,5213,13400,1671,0,3.92,3.94,0.88,21.58,6.56,1.48,20.05,6.57,3.28,3.3,5.32,69.6,21,36.39,39005,39185,27748,40,29726,36980,1,
18/08/2020,18:46:30,ERR,ErrD,1,2730,0,4062,100,57,99,25,0,6911,15404,1786,0,4.14,4.04,0.88,21.51,6.57,1.48,20.05,6.57,3.28,3.3,5.32,77.37,21.01,36.23,32350,38706,26981,40,33478,38123,1,
18/08/2020,18:46:30,ERR,ErrD,1,2730,0,4084,100,37,98,25,0,6923,16183,1622,0,3.85,3.89,0.87,21.56,6.57,1.16,20.21,6.57,3.28,3.3,5.32,78.23,20.99,36.22,24255,37872,27381,40,34874,34368,1,
18/08/2020,18:46:30,ERR,ErrD,1,3612,29,4106,100,100,98,25,0,8312,13400,1450,0,3.82,3.86,0.87,21.49,6.56,1.16,20.21,6.57,3.28,3.3,5.32,74.24,21.02,36.26,34471,36555,19838,40,32277,38392,0,
18/08/2020,18:46:30,ERR,ErrD,1,3612,29,4128,100,100,98,25,0,6625,13400,1286,0,4.01,3.94,0.88,21.56,6.56,1.56,20.43,6.56,3.28,3.29,5.32,76.54,21,36.27,26461,36472,20185,40,24581,43275,0,
18/08/2020,18:46:30,ERR,ErrD,1,3612,29,4150,100,81,98,20,0,6902,14442,1130,0,4.17,4.04,0.88,21.53,6.54,1.56,20.43,6.56,3.28,3.29,5.32,75.95,20.99,36.3,38440,35355,22766,40,29744,37052,1,
18/08/2020,18:46:31,ERR,ErrD,1,3612,29,4172,100,0,98,28,0,6902,18865,960,0,3.91,3.93,0.88,21.53,6.59,1.56,20.43,6.56,3.28,3.29,5.32,74.43,21.02,37.75,37416,36631,24910,40,34841,36958,0,
18/08/2020,18:46:31,ERR,ErrD,1,3612,29,4194,100,0,99,28,0,6902,18865,795,0,4.15,4.03,0.89,21.55,6.56,1.27,20.61,6.58,3.29,3.3,5.32,76.11,20.99,36.4,31826,38681,29445,40,28466,40729,1,
18/08/2020,18:46:31,ERR,ErrD,1,3612,29,4216,100,100,99,28,0,8605,13400,631,0,4.37,4.23,0.89,21.6,6.57,1.27,20.61,6.58,3.29,3.3,5.32,75.89,21.04,36.48,35743,39579,25728,40,31059,38269,1,
18/08/2020,18:46:31,ERR,ErrD,1,3612,29,4238,100,9,99,28,0,6912,17308,467,0,4.54,4.45,0.87,21.55,6.56,2.67,20.98,6.58,3.29,3.3,5.32,80.91,21.03,37.06,38471,38092,20388,40,33530,39514,0,
18/08/2020,18:46:31,ERR,ErrD,1,3612,29,4260,100,9,100,19,0,6912,17308,302,0,4.4,4.22,0.87,21.61,6.56,2.67,20.98,6.58,3.29,3.3,5.32,74.46,21.05,36.55,36758,33577,26175,40,27192,37058,0,
18/08/2020,18:46:32,ERR,ErrD,1,3612,29,4282,100,9,100,20,0,8312,17308,196,0,4.48,4.32,0.87,21.63,6.57,2.67,20.98,6.57,3.27,3.3,5.32,74.71,20.98,36.58,38160,36714,27526,40,29813,40832,1,
18/08/2020,18:46:32,ERR,ErrD,1,3612,29,4305,100,100,100,20,0,8320,13400,369,0,4.52,4.41,0.84,21.59,6.52,1.4,21.18,6.57,3.27,3.3,5.32,79.03,20.99,37.67,35663,38562,23591,40,31018,39520,0,
18/08/2020,18:46:32,ERR,ErrD,1,3672,209,4327,100,100,99,20,0,6906,13400,533,0,3.98,3.93,0.84,21.53,6.56,1.4,21.18,6.57,3.27,3.3,5.32,77.5,21.02,36.64,39013,37949,26058,40,33538,36897,1,
18/08/2020,18:46:32,ERR,ErrD,1,3672,209,4349,100,76,99,20,0,6906,14621,689,0,4.72,4.63,0.84,21.53,6.57,1.29,21.36,6.57,3.28,3.3,5.32,79.57,21.04,36.73,32667,39377,27223,40,27154,36947,1,
18/08/2020,18:46:32,ERR,ErrD,1,3672,209,4371,100,76,99,20,0,5204,14621,852,0,4.27,4.09,0.84,21.54,6.57,1.29,21.36,6.57,3.28,3.3,5.32,76.73,21.01,37.16,34217,37653,27422,40,32222,33068,1,
18/08/2020,18:46:33,ERR,ErrD,1,3672,209,4392,100,0,98,20,0,5204,19724,1015,0,4.42,4.22,0.84,21.61,6.55,1.29,21.36,6.57,3.28,3.3,5.32,74.57,21.01,36.84,34403,38850,24380,40,29702,39561,1,
18/08/2020,18:46:33,ERR,ErrD,1,3672,209,4414,100,100,97,20,0,6903,13400,1187,0,4.4,4.22,0.83,21.52,6.57,1.14,21.52,6.57,3.28,3.3,5.32,78.81,21.03,36.39,32981,40484,28156,40,28500,38246,0,
18/08/2020,18:46:33,ERR,ErrD,1,3672,209,4436,100,100,97,20,0,6903,13400,1344,0,4.34,4.15,0.83,21.59,6.55,1.14,21.52,6.56,3.28,3.29,5.32,76.36,21.02,36.56,35838,40101,26833,40,28459,38403,0,
18/08/2020,18:46:33,ERR,ErrD,1,3672,209,4458,100,62,97,24,0,6900,15181,1508,0,4.62,4.52,0.89,21.48,6.51,1.47,21.72,6.56,3.28,3.29,5.32,80.4,21,37.01,38139,38109,27072,40,29732,39531,1,
18/08/2020,18:46:33,ERR,ErrD,1,3672,209,4480,100,62,96,24,0,6924,15181,1671,0,4.54,4.46,0.89,21.57,6.56,1.47,21.72,6.56,3.28,3.29,5.32,76.42,21.08,37.04,35332,37999,27195,40,30979,36934,1,
18/08/2020,18:46:34,ERR,ErrD,1,3672,209,4502,100,100,90,24,0,8600,13400,1786,0,4.58,4.53,0.89,21.58,6.55,1.47,21.72,6.56,3.28,3.29,5.32,76.14,21.09,37.2,32799,40662,30197,40,32274,38335,0,
18/08/2020,18:46:34,ERR,ErrD,1,3672,209,4524,100,100,82,24,0,5203,13400,1614,0,4.12,4.03,0.88,21.58,6.56,1.62,21.95,6.56,3.27,3.29,5.32,78.48,21.12,37.14,33476,37388,27276,40,34823,39443,0,
18/08/2020,18:46:34,ERR,ErrD,1,3847,447,4546,100,100,80,21,0,5203,13400,1458,0,4.44,4.23,0.88,21.55,6.51,1.62,21.95,6.56,3.27,3.29,5.32,75.66,21.05,37.23,34917,42365,27595,40,27094,39579,1,
18/08/2020,18:46:34,ERR,ErrD,1,3847,447,4568,100,56,78,21,0,6902,15449,1303,0,4.41,4.23,0.88,21.57,6.59,2.41,22.28,6.56,3.27,3.29,5.32,76.72,21.06,37.53,34531,39121,24554,40,30965,38295,0,
18/08/2020,18:46:34,ERR,ErrD,1,3847,447,4590,100,0,82,21,0,6902,18262,1130,0,4.25,4.06,0.88,21.59,6.5,2.41,22.28,6.57,3.28,3.3,5.32,77.59,21.07,37.31,32971,37546,26899,40,32267,33139,1,
18/08/2020,18:46:35,ERR,ErrD,1,3847,447,4612,100,100,89,20,0,6903,13400,967,0,4.27,4.11,0.88,21.57,6.56,2.41,22.28,6.57,3.28,3.3,5.32,79.58,21.12,36.37,31901,38429,26510,40,29790,35830,0,
18/08/2020,18:46:35,ERR,ErrD,1,3847,447,4634,100,61,96,20,0,6905,15241,803,0,4.41,4.21,0.86,21.64,6.55,1.72,22.52,6.57,3.28,3.3,5.32,73.06,21.05,37.55,36305,40441,28293,40,31055,37025,1,
18/08/2020,18:46:35,ERR,ErrD,1,3847,447,4656,100,61,99,20,0,6903,15241,647,0,4.44,4.25,0.86,21.52,6.54,1.72,22.52,6.57,3.28,3.3,5.32,79.19,21.06,37.6,36883,39837,25978,40,28387,35834,1,
18/08/2020,18:46:35,ERR,ErrD,1,3847,447,4678,100,0,98,20,0,6903,19855,475,0,4.25,4.06,0.87,21.87,6.42,1.12,22.68,6.57,3.28,3.3,5.32,79.37,21.08,37.75,33228,39030,27248,40,32295,34392,1,
18/08/2020,18:46:35,ERR,ErrD,1,3847,447,4700,100,100,98,20,0,8626,13400,311,0,4.32,4.14,0.87,21.61,6.54,1.12,22.68,6.57,3.28,3.3,5.32,78.01,21.11,37.87,39442,39115,26463,40,32334,39448,0,
18/08/2020,18:46:36,ERR,ErrD,1,3847,447,4722,100,100,98,20,0,5203,13400,188,0,4.48,4.27,0.87,21.72,6.54,1.12,22.68,6.57,3.28,3.3,5.32,75.03,21.08,37.93,33238,40023,28502,40,28339,37004,0,
18/08/2020,18:46:36,ERR,ErrD,1,3847,447,4744,100,100,98,20,0,6905,13400,353,0,4.42,4.3,0.87,21.57,6.55,2.3,23,6.56,3.28,3.29,5.32,76.05,21.08,37.99,35338,38490,25231,40,36140,38382,0,
18/08/2020,18:46:36,ERR,ErrD,1,3786,596,4765,100,9,100,21,0,6905,17299,507,0,4.45,4.25,0.87,21.57,6.54,2.3,23,6.56,3.28,3.29,5.32,74.52,21.11,38.17,32964,38051,26662,40,29733,37000,0,
18/08/2020,18:46:36,ERR,ErrD,1,3786,596,4787,100,0,99,21,0,6612,17859,680,0,4.55,4.47,0.81,21.59,6.57,1.19,23.16,6.56,3.28,3.29,5.32,77.37,21.1,38.2,36689,35831,26723,40,30973,39633,1,
18/08/2020,18:46:36,ERR,ErrD,1,3786,596,4809,100,100,99,21,0,8320,13400,844,0,4.52,4.41,0.81,21.6,6.56,1.19,23.16,6.56,3.28,3.29,5.32,78.7,21.08,38.39,33928,39908,26651,40,33540,42016,1,
18/08/2020,18:46:37,ERR,ErrD,1,3786,596,4831,100,100,99,21,0,5209,13400,1008,0,4.16,4.04,0.81,21.57,6.53,1.19,23.16,6.58,3.28,3.3,5.32,80.1,21.11,38.52,37664,37532,28244,40,27284,33250,1,
18/08/2020,18:46:37,ERR,ErrD,1,3786,596,4852,100,0,99,21,0,5209,19361,1163,0,4.26,4.08,0.83,21.54,6.57,1.31,23.35,6.58,3.28,3.3,5.32,78.14,21.16,38.56,32781,38389,26153,40,28477,44624,0,
18/08/2020,18:46:37,ERR,ErrD,1,3786,596,4874,100,0,99,19,0,5209,19361,1335,0,4.06,3.96,0.83,21.51,6.54,1.31,23.35,6.58,3.28,3.3,5.32,76.77,21.14,38.71,36021,37666,27799,40,31077,39528,1,
18/08/2020,18:46:37,ERR,ErrD,1,3786,596,4896,100,0,99,19,0,5209,19361,1498,0,4.28,4.09,0.89,21.55,6.55,1.12,23.5,6.58,3.28,3.3,5.32,80.93,21.11,38.81,32255,39315,27197,40,31075,35640,0,
18/08/2020,18:46:37,ERR,ErrD,1,3786,596,4918,100,100,99,19,0,6918,13400,1662,0,4.44,4.27,0.89,21.6,6.55,1.12,23.5,6.58,3.28,3.3,5.32,72.16,21.12,38.94,33062,37056,26301,40,28420,40868,0,
18/08/2020,18:46:38,ERR,ErrD,1,3786,596,4940,100,61,99,19,0,6926,15249,1802,0,4.2,4.06,0.89,21.49,6.57,1.12,23.5,6.58,3.28,3.3,5.32,77.23,21.14,39.02,35378,39128,25041,40,34803,39533,1,
18/08/2020,18:46:38,ERR,ErrD,1,3786,596,4962,100,0,98,29,0,6906,20508,1630,0,4.39,4.21,0.89,21.53,6.56,1.59,23.72,6.58,3.28,3.3,5.32,78.13,21.16,39.06,41688,38744,28292,40,31063,36964,1,
18/08/2020,18:46:38,ERR,ErrD,1,3849,686,4984,100,0,98,29,0,6622,20508,1466,0,3.99,3.92,0.89,21.53,6.58,1.59,23.72,6.56,3.28,3.29,5.32,78.24,21.14,40.67,33224,40970,28875,40,29690,40831,1,
18/08/2020,18:46:38,ERR,ErrD,1,3849,686,5006,100,100,98,29,0,6410,13400,1303,0,4.33,4.13,0.86,21.59,6.55,1.79,23.97,6.56,3.28,3.29,5.32,77.27,21.12,39.27,37558,34834,28962,40,25833,40906,1,
18/08/2020,18:46:38,ERR,ErrD,1,3849,686,5028,100,0,97,29,0,6410,20167,1130,0,4.19,4.07,0.86,21.56,6.57,1.79,23.97,6.56,3.28,3.29,5.32,79.56,21.07,39.32,38082,36708,26856,40,28496,35782,1,
18/08/2020,18:46:39,ERR,ErrD,1,3849,686,5050,100,0,99,18,0,5208,20167,976,0,3.77,3.81,0.86,21.52,6.56,1.79,23.97,6.56,3.28,3.29,5.32,79.78,21.15,39.38,36274,38429,24697,40,30977,40741,1,
18/08/2020,18:46:39,ERR,ErrD,1,3849,686,5072,100,0,99,19,0,6901,20167,811,0,4.36,4.18,0.81,21.55,6.56,1.14,24.13,6.56,3.28,3.29,5.32,80.09,21.14,39.48,30369,36651,24059,40,33468,35652,1,
18/08/2020,18:46:39,ERR,ErrD,1,3849,686,5094,100,0,98,21,0,6901,20167,638,0,3.86,3.91,0.81,21.5,6.58,1.14,24.13,6.56,3.28,3.29,5.32,76.56,21.18,39.61,38657,40296,26356,40,29735,40698,0,
18/08/2020,18:46:39,ERR,ErrD,1,3849,686,5116,100,100,99,21,0,8135,13400,475,0,4.35,4.19,0.84,21.53,6.56,1.52,24.34,6.56,3.28,3.29,5.32,78.95,21.18,39.64,28899,39175,26523,40,32281,37047,1,
18/08/2020,18:46:39,ERR,ErrD,1,3849,686,5138,100,59,99,21,0,8323,15325,320,0,3.84,3.87,0.84,21.57,6.56,1.52,24.34,6.57,3.29,3.29,5.32,74.85,21.13,39.76,36393,37719,26105,40,28409,39587,0,
18/08/2020,18:46:40,ERR,ErrD,1,3849,686,5160,100,59,99,21,0,6907,15325,180,0,4.03,3.94,0.84,21.55,6.56,1.52,24.34,6.57,3.29,3.29,5.32,77.82,21.19,39.78,37903,36793,23103,40,28430,35657,0,
18/08/2020,18:46:40,ERR,ErrD,1,3849,686,5182,100,0,99,20,0,6902,17702,353,0,4.24,4.05,0.88,21.5,6.57,1.27,24.52,6.57,3.29,3.29,5.32,75.56,21.16,39.88,39026,39576,26170,40,27147,38199,0,
18/08/2020,18:46:40,ERR,ErrD,1,3732,776,5204,100,100,99,19,0,8322,13400,517,0,4.33,4.14,0.88,21.6,6.56,1.27,24.52,6.56,3.28,3.29,5.32,75.31,21.14,39.99,38833,41611,28707,40,29751,38290,1,
18/08/2020,18:46:40,ERR,ErrD,1,3732,776,5226,100,100,98,19,0,5204,13400,680,0,3.83,3.86,0.78,21.53,6.57,2.71,24.9,6.56,3.28,3.29,5.33,76.91,21.17,40.08,38783,38218,27556,40,30977,38394,1,
18/08/2020,18:46:40,ERR,ErrD,1,3732,776,5249,100,37,98,21,0,6901,16175,844,0,3.95,3.92,0.78,21.61,6.57,2.71,24.9,6.56,3.28,3.29,5.32,81.33,21.22,40.17,31594,37279,27685,40,31044,36986,0,
18/08/2020,18:46:41,ERR,ErrD,1,3732,776,5271,100,37,99,21,0,6901,16175,1008,0,4.08,3.98,0.78,21.52,6.53,2.71,24.9,6.56,3.28,3.29,5.32,70.63,21.16,40.21,27494,37644,23436,40,31075,40885,1,
18/08/2020,18:46:41,ERR,ErrD,1,3732,776,5293,100,37,99,21,0,4925,16175,1171,0,4.02,3.93,0.8,21.49,6.52,1.55,25.11,6.58,3.28,3.3,5.32,76.15,21.16,40.28,29115,38978,28327,40,32336,38197,1,
18/08/2020,18:46:41,ERR,ErrD,1,3732,776,5315,100,100,99,21,0,8338,13400,1344,0,4.28,4.09,0.8,21.56,6.55,1.55,25.11,6.58,3.28,3.3,5.32,78.11,21.21,40.4,34966,35545,30261,40,32194,33181,1,
18/08/2020,18:46:41,ERR,ErrD,1,3732,776,5337,100,100,99,21,0,8125,13400,1498,0,4.36,4.17,0.88,21.54,6.54,1.36,25.3,6.58,3.28,3.3,5.32,77.44,21.2,40.51,34306,39298,25754,40,29683,39602,0,
18/08/2020,18:46:41,ERR,ErrD,1,3732,776,5359,100,72,99,19,0,8317,14770,1662,0,4.15,4.02,0.88,21.51,6.56,1.36,25.3,6.58,3.29,3.3,5.32,78.65,21.2,40.63,37174,36229,23098,40,31058,39431,0,
18/08/2020,18:46:42,ERR,ErrD,1,3732,776,5381,100,37,99,19,0,8316,16203,1794,0,4.4,4.23,0.88,21.56,6.55,1.36,25.3,6.58,3.29,3.3,5.32,74.39,21.14,40.68,33017,40064,26652,40,34737,41976,1,
18/08/2020,18:46:42,ERR,ErrD,1,3732,776,5403,100,100,99,19,0,8328,13400,1622,0,4.13,4.02,0.79,21.54,6.56,1.31,25.48,6.58,3.29,3.3,5.32,77.3,21.21,40.92,36857,38742,25159,40,30940,34433,0,
18/08/2020,18:46:42,ERR,ErrD,1,3760,805,5425,100,100,98,19,0,8320,13400,1466,0,3.93,3.93,0.79,21.56,6.55,1.31,25.48,6.58,3.29,3.3,5.32,77.55,21.22,40.87,36165,37620,30191,40,31007,37035,1,
18/08/2020,18:46:42,ERR,ErrD,1,3760,805,5447,100,85,98,23,0,8319,14270,1303,0,4.44,4.25,0.88,21.55,6.54,1.85,25.74,6.56,3.29,3.28,5.32,77.29,21.24,40.91,34535,41226,28279,40,31022,39593,0,
18/08/2020,18:46:42,ERR,ErrD,1,3760,805,5469,100,12,96,23,0,8311,17200,1130,0,4.16,4.05,0.88,21.56,6.57,1.85,25.74,6.56,3.29,3.28,5.32,79.84,21.23,41.05,32217,37929,29294,40,34838,35643,1,
18/08/2020,18:46:43,ERR,ErrD,1,3760,805,5491,100,12,97,23,0,5206,17200,967,0,4.08,3.96,0.88,21.61,6.52,1.85,25.74,6.56,3.29,3.28,5.32,78.56,21.22,41.17,33096,39973,27327,40,34804,35636,1,
18/08/2020,18:46:43,ERR,ErrD,1,3760,805,5513,100,100,97,23,0,8129,13400,803,0,3.76,3.78,0.88,21.51,6.52,1.13,25.9,6.56,3.28,3.29,5.32,76.31,21.2,41.2,32567,39765,29951,40,27183,37019,0,
18/08/2020,18:46:43,ERR,ErrD,1,3760,805,5535,100,0,98,19,0,8129,18919,638,0,4.19,4.03,0.88,21.56,6.55,1.13,25.9,6.56,3.28,3.29,5.32,77.89,21.23,41.01,36593,39894,24405,40,33519,35723,0,
18/08/2020,18:46:43,ERR,ErrD,1,3760,805,5557,100,0,100,19,0,6908,18919,475,0,4.21,4.06,0.85,21.61,6.56,2,26.18,6.56,3.28,3.29,5.32,74.69,21.23,42.44,36438,37418,27036,40,32247,34475,1,
18/08/2020,18:46:43,ERR,ErrD,1,3760,805,5579,100,0,100,19,0,6901,18919,311,0,4.23,4.05,0.85,21.58,6.54,2,26.18,6.56,3.28,3.29,5.32,73.39,21.23,41.5,32382,36042,29505,40,29712,35714,1,
18/08/2020,18:46:44,ERR,ErrD,1,3760,805,5601,100,100,100,19,0,8325,13400,188,0,4.32,4.12,0.85,21.54,6.52,2,26.18,6.57,3.27,3.3,5.32,78.82,21.31,41.51,34811,36500,26463,40,25865,33198,0,
18/08/2020,18:46:44,ERR,ErrD,1,3760,805,5623,100,0,100,19,0,8325,18402,353,0,3.77,3.82,0.88,21.53,6.57,1.66,26.41,6.57,3.27,3.3,5.32,78.44,21.23,41.63,36689,37098,23860,40,32302,39462,0,
18/08/2020,18:46:44,ERR,ErrD,1,3790,835,5645,100,0,100,19,0,5204,18402,517,0,3.92,3.92,0.88,21.57,6.56,1.66,26.41,6.57,3.27,3.3,5.32,79.34,21.16,41.68,30677,37280,25352,40,33623,39533,1,
18/08/2020,18:46:44,ERR,ErrD,1,3790,835,5667,100,0,97,26,0,5204,18402,680,0,4.51,4.34,0.85,21.59,6.55,2.04,26.69,6.57,3.27,3.3,5.32,80.42,21.24,41.66,32178,38622,26371,40,28432,38301,1,
18/08/2020,18:46:44,ERR,ErrD,1,3790,835,5689,100,0,89,27,0,8606,18402,844,0,3.98,3.93,0.85,21.54,6.57,2.04,26.69,6.57,3.27,3.3,5.32,77.91,21.25,41.75,33421,38428,28112,40,32199,35815,0,
18/08/2020,18:46:45,ERR,ErrD,1,3790,835,5711,100,100,85,29,0,8321,13400,1015,0,4.12,4.02,0.85,21.56,6.57,2.04,26.69,6.57,3.27,3.3,5.32,76.81,21.19,41.89,37076,37593,27118,40,29760,40807,0,
18/08/2020,18:46:45,ERR,ErrD,1,3790,835,5733,100,100,79,29,0,6922,13400,1171,0,4.38,4.19,0.86,21.64,6.57,1.12,26.85,6.57,3.27,3.3,5.32,79.12,21.23,41.95,36977,36872,28745,40,29739,40709,1,
18/08/2020,18:46:45,ERR,ErrD,1,3790,835,5755,100,0,78,29,0,6922,18095,1351,0,4.87,4.76,0.86,21.59,6.55,1.12,26.85,6.58,3.29,3.3,5.32,78.12,21.28,42,28296,32732,23206,40,24691,40854,0,
18/08/2020,18:46:45,ERR,ErrD,1,3790,835,5777,100,0,84,29,0,5207,18095,1515,0,4.91,4.79,0.89,21.59,6.52,1.8,27.1,6.58,3.29,3.3,5.32,79.37,21.29,42.04,32286,34007,25371,40,28501,38268,1,
18/08/2020,18:46:45,ERR,ErrD,1,3790,835,5799,100,0,91,28,0,5205,18095,1671,0,4.48,4.36,0.89,21.56,6.57,1.8,27.1,6.58,3.29,3.3,5.32,77.95,21.22,42.08,29483,35850,22184,40,31037,38340,1,
18/08/2020,18:46:46,ERR,ErrD,1,3790,835,5821,100,4,95,27,0,8310,17506,1786,0,4.71,4.61,0.89,21.62,6.57,1.8,27.1,6.58,3.29,3.3,5.32,78.23,21.3,42.21,33522,38415,23567,40,29774,36978,1,
18/08/2020,18:46:46,ERR,ErrD,1,3790,835,5843,100,4,99,26,0,7924,17506,1614,0,4.65,4.57,0.83,21.55,6.56,1.3,27.28,6.57,3.28,3.3,5.32,75.66,21.25,42.27,32393,35295,24597,40,28443,38419,0,
18/08/2020,18:46:46,ERR,ErrD,1,4047,893,5865,100,4,99,26,0,7924,17506,1450,0,4.97,4.92,0.83,21.56,6.56,1.3,27.28,6.57,3.28,3.3,5.32,81.24,21.25,42.37,29631,37126,24744,40,30944,38161,1,
18/08/2020,18:46:46,ERR,ErrD,1,4047,893,5887,100,4,99,26,0,6911,17506,1293,0,5.26,5.29,0.86,21.73,6.53,2.12,27.58,6.57,3.28,3.3,5.32,77.16,21.3,43.58,30501,34249,23947,40,27189,39652,0,
18/08/2020,18:46:46,ERR,ErrD,1,4047,893,5908,100,100,98,27,0,8320,13400,1130,0,5.14,5.14,0.86,21.74,6.53,2.12,27.58,6.56,3.26,3.3,5.32,75.14,21.26,42.47,30060,37188,22242,40,24669,31936,0,
18/08/2020,18:46:47,ERR,ErrD,1,4047,893,5930,100,0,98,27,0,6786,20404,960,0,5.73,5.62,0.86,21.58,6.53,2.12,27.58,6.56,3.26,3.3,5.32,78.38,21.28,42.56,32233,38250,26249,40,22041,37032,1,
18/08/2020,18:46:47,ERR,ErrD,1,4047,893,5952,100,0,97,27,0,6786,20404,795,0,5.84,5.68,0.78,21.65,6.56,1.15,27.74,6.56,3.26,3.3,5.32,76.03,21.28,42.65,35614,36257,27928,40,25896,35821,0,
18/08/2020,18:46:47,ERR,ErrD,1,4047,893,5974,100,0,96,27,0,6608,20404,631,0,5.5,5.51,0.78,21.67,6.55,1.15,27.74,6.56,3.26,3.3,5.32,80.25,21.33,42.73,30175,38652,28846,40,25880,33143,1,
18/08/2020,18:46:47,ERR,ErrD,1,4047,893,5996,100,0,97,19,0,6920,20404,475,0,5.27,5.33,0.84,21.69,6.56,1.45,27.94,6.55,3.27,3.28,5.32,74.92,21.29,42.88,30546,37264,26515,40,20809,34384,1,
18/08/2020,18:46:47,ERR,ErrD,1,4047,893,6018,100,100,96,26,0,8309,13400,302,0,6.04,5.89,0.84,21.66,6.55,1.45,27.94,6.55,3.27,3.28,5.32,74.9,21.33,42.33,34204,36316,25180,40,27226,31900,1,
18/08/2020,18:46:48,ERR,ErrD,1,4047,893,6040,100,100,97,26,0,8309,13400,196,0,6.08,5.91,0.84,21.71,6.52,1.45,27.94,6.55,3.27,3.28,5.32,78.3,21.29,43.14,36957,29295,29094,40,24581,35806,0,
18/08/2020,18:46:48,ERR,ErrD,1,4047,893,6062,100,61,97,26,0,6928,15211,360,0,5.97,5.79,0.87,21.66,6.56,1.14,28.1,6.56,3.28,3.29,5.32,74.07,21.3,43.26,36437,33082,31548,40,22130,32946,1,
18/08/2020,18:46:48,ERR,ErrD,1,4882,1608,6084,100,61,98,26,0,8338,15211,517,0,6.01,5.83,0.87,21.75,6.54,1.14,28.1,6.56,3.28,3.29,5.32,71.43,21.35,43.4,34139,30475,27239,40,27220,40592,0,
18/08/2020,18:46:48,ERR,ErrD,1,4882,1608,6106,100,100,98,28,0,7931,13400,689,0,6.27,6.18,0.9,21.7,6.55,2.77,28.48,6.56,3.28,3.29,5.32,75.22,21.37,43.56,33040,30366,28029,40,32167,37263,1,
18/08/2020,18:46:48,ERR,ErrD,1,4882,1608,6128,100,100,99,28,0,6904,13400,852,0,6.15,6.08,0.9,21.62,6.52,2.77,28.48,6.56,3.28,3.29,5.32,80.74,21.35,42.91,37717,35627,29536,40,25884,41881,0,
18/08/2020,18:46:49,ERR,ErrD,1,4882,1608,6150,100,100,99,28,0,5205,13400,1015,0,6.16,6.06,0.9,21.68,6.5,2.77,28.48,6.56,3.27,3.29,5.32,80.78,21.34,43.8,28854,34200,27130,40,27231,38369,0,
18/08/2020,18:46:49,ERR,ErrD,1,4882,1608,6171,100,17,98,28,0,5205,16985,1179,0,6.14,6.02,0.85,21.76,6.47,1.19,28.65,6.56,3.27,3.29,5.33,80.52,21.4,43.98,33786,35008,28931,40,29757,36594,1,
18/08/2020,18:46:49,ERR,ErrD,1,4882,1608,6193,100,0,98,19,0,5205,18202,1344,0,6.11,6.01,0.85,21.71,6.52,1.19,28.65,6.56,3.27,3.29,5.32,78.33,21.39,44.1,32804,31726,33038,40,30910,24662,0,
18/08/2020,18:46:49,ERR,ErrD,1,4882,1608,6215,100,100,98,19,0,7944,13400,1508,0,6.3,6.17,0.89,21.78,6.55,2.89,29.05,6.56,3.27,3.29,5.32,77.84,21.38,44.22,33684,35999,27844,40,32227,37068,0,
18/08/2020,18:46:49,ERR,ErrD,1,4882,1608,6237,100,79,97,19,0,8313,14498,1671,0,6.23,6.15,0.89,21.81,6.52,2.89,29.05,6.56,3.27,3.29,5.32,76.81,21.4,45.17,38328,33226,30719,40,27150,38338,1,
18/08/2020,18:46:50,ERR,ErrD,1,4882,1608,6259,100,0,97,19,0,6920,18104,1778,0,6.15,6.09,0.89,21.72,6.54,2.89,29.05,6.56,3.27,3.29,5.32,73.86,21.34,44.46,36194,33652,28147,40,31043,35774,1,
18/08/2020,18:46:50,ERR,ErrD,1,4882,1608,6281,100,0,97,19,0,6625,18104,1622,0,6.47,6.37,0.88,21.68,6.56,1.66,29.28,6.56,3.27,3.29,5.32,77.86,21.37,44.59,36220,33908,29965,40,27229,39333,0,
18/08/2020,18:46:50,ERR,ErrD,1,5401,3610,6303,100,100,97,27,0,8605,13400,1458,0,6.64,6.52,0.88,21.74,6.47,1.66,29.28,6.56,3.27,3.29,5.32,80.19,21.38,44.71,33374,34695,28522,40,29768,33157,0,
18/08/2020,18:46:50,ERR,ErrD,1,5401,3610,6325,100,44,97,27,0,6920,15892,1293,0,6.63,6.52,0.88,21.98,6.51,1.42,29.48,6.56,3.27,3.29,5.32,74.21,21.35,44.9,30705,31558,33461,40,33503,34479,0,
18/08/2020,18:46:50,ERR,ErrD,1,5401,3610,6346,100,0,98,27,0,6920,18114,1130,0,6.79,6.71,0.91,21.86,6.5,1.42,29.48,6.56,3.27,3.29,5.32,75.62,21.34,45.02,33924,34149,27400,40,23369,33435,0,
18/08/2020,18:46:51,ERR,ErrD,1,5401,3610,6368,100,0,97,27,0,6920,18726,967,0,6.77,6.65,0.91,21.86,6.51,1.42,29.48,6.54,3.26,3.28,5.32,76.09,21.38,45.16,35819,35424,31988,40,28420,33151,0,
18/08/2020,18:46:51,ERR,ErrD,1,5401,3610,6390,100,0,97,27,0,8311,18726,803,0,6.84,6.78,0.94,21.86,6.51,2.58,29.84,6.54,3.26,3.28,5.33,76.52,21.4,45.29,33708,33207,32276,40,27154,38127,1,
18/08/2020,18:46:51,ERR,ErrD,1,5401,3610,6412,100,100,97,23,0,6907,13400,638,0,6.76,6.63,0.94,21.74,6.51,2.58,29.84,6.54,3.26,3.28,5.33,80.2,21.39,45.41,31724,34192,29026,40,28444,35555,1,
18/08/2020,18:46:51,ERR,ErrD,1,5401,3610,6434,100,13,97,23,0,6626,17145,467,0,6.87,6.84,0.94,21.63,6.51,1.17,30.01,6.54,3.26,3.28,5.33,78.18,21.4,45.53,32811,33252,31751,40,37417,32888,1,
18/08/2020,18:46:51,ERR,ErrD,1,5401,3610,6456,100,13,97,23,0,8339,17145,302,0,6.95,6.85,1.7,21.45,6.52,1.17,30.01,6.56,3.28,3.28,5.32,79.07,21.42,45.63,32022,33547,34699,40,34920,31726,1,
18/08/2020,18:46:52,ERR,ErrD,1,5401,3610,6478,100,13,97,19,0,5208,17145,188,0,6.93,6.9,1.7,21.54,6.53,1.17,30.01,6.56,3.28,3.28,5.33,77.57,21.4,45.88,33720,33838,32869,40,36368,35688,1,
18/08/2020,18:46:52,ERR,ErrD,1,5401,3610,6500,100,100,96,26,0,8623,13400,360,0,6.93,6.91,1.06,21.37,6.52,2.28,30.32,6.56,3.28,3.28,5.33,73.41,21.43,46,29539,33415,30483,40,39805,34124,1,
18/08/2020,18:46:52,ERR,ErrD,1,6676,6228,6522,100,100,98,26,0,6907,13400,524,0,6.95,6.95,1.06,20.87,6.58,2.28,30.32,6.56,3.28,3.28,5.33,79.62,21.44,46.19,31293,33256,32390,40,25744,29404,1,
18/08/2020,18:46:52,ERR,ErrD,1,6676,6228,6544,100,100,98,26,0,6901,13400,689,0,7.14,6.98,1.06,20.52,6.62,1.05,30.47,6.59,3.29,3.3,5.33,80.08,21.42,46.33,34015,34608,34898,40,33425,36928,1,
18/08/2020,18:46:52,ERR,ErrD,1,6676,6228,6566,100,0,98,26,0,6901,19595,852,0,7.38,6.97,2.72,20.26,6.61,1.05,30.47,6.59,3.29,3.3,5.33,77.33,21.4,46.54,36847,32577,31532,40,33543,35577,1,
18/08/2020,18:46:53,ERR,ErrD,1,6676,6228,6588,100,0,99,19,0,6901,19595,1015,0,7.34,6.99,2.72,20.2,6.62,1.05,30.47,6.59,3.29,3.3,5.33,77.95,21.43,47.03,30876,33368,30077,40,32581,35934,0,
18/08/2020,18:46:53,ERR,ErrD,1,6676,6228,6610,100,100,99,19,0,8106,13400,1179,0,7.92,6.97,2.42,20.13,6.64,0.58,30.55,6.58,3.29,3.3,5.33,79.91,21.44,46.56,34282,32785,32372,40,33248,37924,1,
18/08/2020,18:46:53,ERR,ErrD,1,6676,6228,6632,100,73,99,19,0,8320,14735,1344,0,8.18,7,2.42,20.16,6.62,0.58,30.55,6.58,3.29,3.3,5.33,76.44,21.48,47.32,30279,31286,31160,40,32128,28236,0,
18/08/2020,18:46:53,ERR,ErrD,1,6676,6228,6654,100,0,99,19,0,6634,17761,1508,0,8.51,6.95,2.42,20.33,6.6,0.87,30.67,6.58,3.29,3.3,5.33,78.88,21.47,47.71,33514,34174,31493,40,40646,30317,1,
18/08/2020,18:46:53,ERR,ErrD,1,6676,6228,6676,100,0,99,21,0,6634,17761,1671,0,9.07,6.98,3.33,20.3,6.63,0.87,30.67,6.58,3.29,3.3,5.32,73.49,21.45,48.08,30080,35794,35445,40,28621,31536,1,
18/08/2020,18:46:54,ERR,ErrD,1,6676,6228,6698,100,0,98,21,0,8322,17761,1786,0,9.22,7,3.33,20.22,6.63,0.87,30.67,6.61,3.3,3.3,5.33,77.91,21.49,48.63,32522,33454,34955,40,33469,32018,1,
18/08/2020,18:46:54,ERR,ErrD,1,6676,6228,6720,100,100,97,21,0,8321,13400,1614,0,9.79,7.01,2.66,20.2,6.63,-0.04,30.67,6.61,3.3,3.3,5.33,75.24,21.42,48.84,32474,32087,31971,40,33426,34960,1,
18/08/2020,18:46:54,ERR,ErrD,1,9484,9484,6742,100,100,97,21,0,6955,13400,1450,0,10.46,7.02,2.66,20.24,6.66,-0.04,30.67,6.61,3.3,3.3,5.33,76.95,21.48,49.35,32644,32673,34414,40,34664,33553,0,
18/08/2020,18:46:54,ERR,ErrD,1,9484,9484,6764,100,100,97,19,0,5203,13400,1293,0,10.55,7,2.66,20.3,6.65,0.41,30.72,6.61,3.3,3.31,5.33,79.33,21.55,49.75,33385,32662,33748,40,32975,34127,1,
18/08/2020,18:46:54,ERR,ErrD,1,9484,9484,6786,100,72,98,24,0,4681,14790,1130,0,10.98,6.99,2.51,20.3,6.64,0.41,30.72,6.61,3.3,3.31,5.33,77.37,21.5,50.36,34136,33420,31546,40,30699,34839,0,
18/08/2020,18:46:55,ERR,ErrD,1,9484,9484,6808,100,100,98,24,0,8340,13400,960,0,11.35,7.02,2.51,20.22,6.63,0.41,30.72,6.61,3.3,3.31,5.32,76.47,21.61,51.41,33570,36607,33241,40,32903,32715,0,
18/08/2020,18:46:55,ERR,ErrD,1,9484,9484,6830,100,100,99,24,0,6903,13400,795,0,10.76,6.99,2.44,20.23,6.6,-0.02,30.72,6.61,3.3,3.31,5.33,76.09,21.47,52.16,31431,32436,33280,40,27175,33324,1,
18/08/2020,18:46:55,ERR,ErrD,1,9484,9484,6852,100,100,99,24,0,8605,13400,638,0,11.03,7,2.44,20.27,6.62,-0.02,30.72,6.61,3.3,3.31,5.33,73.42,21.54,52.58,31127,33783,32767,40,28505,33349,0,
18/08/2020,18:46:55,ERR,ErrD,1,9484,9484,6874,100,0,98,28,0,6904,18860,467,0,11.34,7.01,2.44,20.37,6.65,0.46,30.78,6.61,3.3,3.31,5.33,76.3,21.59,53.05,33602,32067,32782,40,28437,32615,0,
18/08/2020,18:46:55,ERR,ErrD,1,9484,9484,6896,100,0,99,28,0,8318,18860,302,0,11.22,7.04,2.39,20.24,6.65,0.46,30.78,6.61,3.3,3.31,5.33,76.74,21.51,53.51,32986,33162,32767,40,32941,31423,0,
18/08/2020,18:46:56,ERR,ErrD,1,9484,9484,6918,100,100,99,28,0,8321,13400,196,0,10.74,6.97,2.39,20.39,6.63,0.46,30.78,6.61,3.3,3.31,5.33,76.34,21.48,54.01,32692,32425,33532,40,30315,33203,1,
18/08/2020,18:46:56,ERR,ErrD,1,9484,9484,6940,100,21,98,28,0,7933,16818,369,0,10.6,7.03,2.76,20.37,6.65,0.23,30.82,6.61,3.3,3.31,5.33,76.49,21.56,54.5,31488,33861,32147,40,25994,32410,0,
18/08/2020,18:46:56,ERR,ErrD,1,12187,12157,6962,100,21,99,19,0,6941,16818,524,0,10.84,7.01,2.76,20.34,6.65,0.23,30.82,6.61,3.3,3.31,5.33,75.96,21.57,54.04,32807,32002,32483,40,32230,32965,0,
18/08/2020,18:46:56,ERR,ErrD,1,12187,12157,6984,100,21,99,21,0,6613,16818,689,0,10.83,7.03,2.76,20.4,6.68,0.09,30.83,6.61,3.3,3.31,5.33,75.44,21.66,55.42,33062,33411,33095,40,32776,32296,0,
18/08/2020,18:46:56,ERR,ErrD,1,12187,12157,7005,100,100,98,21,0,6901,13400,852,0,10.45,7.02,3.06,20.33,6.66,0.09,30.83,6.62,3.3,3.32,5.33,77.8,21.61,55.83,32242,33642,33379,40,29398,30059,1,
18/08/2020,18:46:57,ERR,ErrD,1,12187,12157,7027,100,0,98,21,0,6901,19484,1024,0,10.98,7.02,3.06,20.34,6.68,0.09,30.83,6.62,3.3,3.32,5.33,77.66,21.64,56.21,31522,32272,34140,40,26309,34126,0,
18/08/2020,18:46:57,ERR,ErrD,1,12187,12157,7049,100,0,97,21,0,6901,19484,1179,0,10.89,7.05,2.37,20.35,6.66,0.02,30.83,6.62,3.3,3.32,5.32,78.58,21.62,56.61,32708,33352,32969,40,30225,32295,0,
18/08/2020,18:46:57,ERR,ErrD,1,12187,12157,7071,100,0,96,24,0,6902,19484,1344,0,10.39,6.99,2.37,20.21,6.6,0.02,30.83,6.61,3.3,3.31,5.33,79.32,21.66,57.02,30926,33025,33338,40,25255,33065,0,
18/08/2020,18:46:57,ERR,ErrD,1,12187,12157,7093,100,0,96,24,0,6902,19484,1515,0,10.82,7.02,2.37,20.37,6.61,0.66,30.92,6.61,3.3,3.31,5.33,75.07,21.66,57.39,33035,33492,33217,40,26349,32200,1,
18/08/2020,18:46:57,ERR,ErrD,1,12187,12157,7115,100,100,97,24,0,8311,13400,1680,0,10.39,7.01,2.36,20.41,6.64,0.66,30.92,6.61,3.3,3.31,5.32,79.23,21.68,57.92,32481,36204,33176,40,27378,32152,1,
18/08/2020,18:46:58,ERR,ErrD,1,12187,12157,7137,100,88,96,24,0,6924,14169,1778,0,10.72,7.04,2.36,20.35,6.63,0.66,30.92,6.61,3.3,3.31,5.33,77.66,21.76,58.43,32279,33594,31957,40,23896,33382,0,
18/08/2020,18:46:58,ERR,ErrD,1,12187,12157,7160,100,0,97,20,0,4909,18833,1614,0,10.52,6.97,2.49,20.31,6.64,0.99,31.06,6.62,3.3,3.31,5.33,73,21.7,59.09,31210,32521,32074,40,21914,34197,1,
18/08/2020,18:46:58,ERR,ErrD,1,12144,12084,7182,100,0,98,20,0,4909,18833,1450,0,10.76,6.97,2.49,20.41,6.65,0.99,31.06,6.62,3.3,3.31,5.33,80.35,21.78,58.79,31320,32577,32367,40,25952,33418,0,
18/08/2020,18:46:58,ERR,ErrD,1,12144,12084,7204,100,100,98,20,0,7919,13400,1286,0,10.78,7,2.49,20.44,6.64,0.18,31.09,6.62,3.3,3.31,5.33,76.75,21.77,59.49,31419,32041,33205,40,27188,32780,0,
18/08/2020,18:46:58,ERR,ErrD,1,12144,12084,7226,100,0,98,20,0,6413,19112,1122,0,10.83,7.01,2.73,20.34,6.64,0.18,31.09,6.61,3.3,3.31,5.33,77.79,21.76,60.57,32472,33108,32767,40,24497,33583,0,
18/08/2020,18:46:59,ERR,ErrD,1,12144,12084,7248,100,0,99,20,0,6413,19112,960,0,11.11,7.06,2.73,20.46,6.66,0.18,31.09,6.61,3.3,3.31,5.33,74.93,21.75,61.08,31390,33272,32693,40,23490,32598,1,
18/08/2020,18:46:59,ERR,ErrD,1,12144,12084,7270,100,0,99,20,0,6413,19112,795,0,10.65,7.02,3.38,20.42,6.64,0.84,31.2,6.61,3.3,3.31,5.33,78.78,21.89,61.52,33620,30284,33307,40,25582,33832,0,
18/08/2020,18:46:59,ERR,ErrD,1,12144,12084,7292,100,0,100,20,0,6922,19112,631,0,10.69,6.99,3.38,20.47,6.64,0.84,31.2,6.61,3.3,3.31,5.33,76.73,21.81,62.12,32500,31999,33042,40,27804,33927,0,
18/08/2020,18:46:59,ERR,ErrD,1,12144,12084,7314,100,100,99,19,0,8327,13400,459,0,10.82,7.01,3.38,20.52,6.65,0.01,31.21,6.61,3.3,3.3,5.33,80,21.81,63.1,33187,32868,34612,40,31952,33406,1,
18/08/2020,18:46:59,ERR,ErrD,1,12144,12084,7336,100,100,99,19,0,6904,13400,302,0,10.78,7.02,2.29,20.59,6.65,0.01,31.21,6.61,3.3,3.3,5.33,80.07,21.88,62.41,34664,34175,32498,40,28898,33113,0,
18/08/2020,18:47:00,ERR,ErrD,1,12144,12084,7358,100,6,99,19,0,6906,17423,196,0,10.6,7.01,2.29,20.52,6.62,0.01,31.21,6.61,3.3,3.3,5.33,79.36,21.96,63.94,33111,32493,33371,40,28160,32722,0,
18/08/2020,18:47:00,ERR,ErrD,1,12144,12084,7380,100,0,98,19,0,6906,18915,369,0,10.61,7.01,2.26,20.56,6.65,1.03,31.35,6.63,3.3,3.32,5.33,80.77,21.83,64.42,32722,33089,32032,40,29516,32973,0,
18/08/2020,18:47:00,ERR,ErrD,1,12067,12067,7402,100,100,98,19,0,8345,13400,533,0,10.39,7.01,2.26,20.45,6.65,1.03,31.35,6.63,3.3,3.32,5.32,77.08,21.85,64.98,32884,32599,32756,40,27440,33360,0,
18/08/2020,18:47:00,ERR,ErrD,1,12067,12067,7424,100,100,98,21,0,6625,13400,689,0,10.66,7,2.26,20.6,6.64,0.27,31.39,6.63,3.3,3.32,5.33,78.63,21.95,65.69,31062,34156,32708,40,26909,32830,1,
18/08/2020,18:47:00,ERR,ErrD,1,12067,12067,7444,100,96,95,37,0,6902,13814,852,0,10.9,6.99,3.1,20.55,6.6,0.27,31.39,6.63,3.3,3.32,5.33,78.3,21.91,64.92,34016,29541,32584,40,28548,33158,0,
18/08/2020,18:47:01,ERR,ErrD,1,12067,12067,7466,100,13,95,37,0,6902,17133,1024,0,10.72,7.03,3.1,20.67,6.61,0.27,31.39,6.62,3.3,3.32,5.33,77.53,21.92,66.2,31156,33999,32675,40,25647,32341,0,
18/08/2020,18:47:01,ERR,ErrD,1,12067,12067,7488,100,13,95,37,0,6632,17133,1187,0,10.57,7.03,2.73,20.5,6.66,0.17,31.41,6.62,3.3,3.32,5.33,77.48,21.93,66.62,31772,32776,33330,40,22569,32938,0,
18/08/2020,18:47:01,ERR,ErrD,1,12067,12067,7510,100,100,96,37,0,6904,13400,1351,0,10.49,7.03,2.73,20.56,6.66,0.17,31.41,6.62,3.3,3.32,5.32,76.88,22.04,67.05,31287,34181,32828,40,23131,34239,0,
18/08/2020,18:47:01,ERR,ErrD,1,12067,12067,7533,100,28,99,21,0,6902,16534,1515,0,10.82,7,2.73,20.58,6.64,0.84,31.53,6.63,3.3,3.32,5.33,77.3,22,67.52,30643,32052,33154,40,23467,33048,1,
18/08/2020,18:47:01,ERR,ErrD,1,12067,12067,7555,100,28,100,21,0,6902,16534,1680,0,10.78,7.05,2.39,20.55,6.67,0.84,31.53,6.63,3.3,3.32,5.33,77.99,22.07,68.13,34766,32008,32902,40,23157,31983,1,
18/08/2020,18:47:02,ERR,ErrD,1,12067,12067,7577,100,28,100,20,0,6902,16534,1778,0,10.82,7.04,2.39,20.59,6.64,0.84,31.53,6.63,3.3,3.32,5.33,76.07,22.01,68.83,33406,32442,32662,40,21690,33988,0,
18/08/2020,18:47:02,ERR,ErrD,1,12067,12067,7599,100,28,100,20,0,6617,16534,1614,0,10.62,7.01,3.04,20.77,6.67,0.5,31.6,6.63,3.3,3.32,5.33,76.74,22.06,70.1,35080,32486,32841,40,25939,33652,0,
18/08/2020,18:47:02,ERR,ErrD,1,12110,12141,7621,100,0,100,20,0,6903,19947,1450,0,10.69,7.02,3.04,20.54,6.66,0.5,31.6,6.63,3.31,3.31,5.33,80.5,22.08,69.79,32605,32426,32044,40,25787,33774,0,
18/08/2020,18:47:02,ERR,ErrD,1,12110,12141,7643,100,0,100,20,0,6903,19947,1286,0,10.88,7.04,3.04,20.58,6.65,0.31,31.64,6.63,3.31,3.31,5.33,78.58,22.08,70.25,35154,32875,32654,40,29593,34038,1,
18/08/2020,18:47:02,ERR,ErrD,1,12110,12141,7665,100,0,99,20,0,5205,19947,1122,0,10.92,7.05,2.81,20.58,6.66,0.31,31.64,6.63,3.31,3.31,5.33,76.37,22.11,70.75,32540,33140,33276,40,22695,30596,0,
18/08/2020,18:47:03,ERR,ErrD,1,12110,12141,7687,100,0,99,20,0,6901,19947,960,0,10.83,7.05,2.81,20.52,6.66,0.31,31.64,6.63,3.3,3.32,5.33,81.81,22.2,71.6,30962,31146,32559,40,24880,33769,0,
18/08/2020,18:47:03,ERR,ErrD,1,12110,12141,7709,100,100,97,26,0,6928,13400,787,0,10.69,6.97,2.41,20.52,6.63,0.39,31.69,6.63,3.3,3.32,5.33,78.31,22.16,72.14,33214,33091,32675,40,20750,30613,0,
18/08/2020,18:47:03,ERR,ErrD,1,12110,12141,7731,100,43,97,26,0,6902,15943,631,0,10.74,7.04,2.41,20.61,6.66,0.39,31.69,6.63,3.3,3.32,5.33,80.43,22.17,72.61,31047,33300,31687,40,24773,34139,0,
18/08/2020,18:47:03,ERR,ErrD,1,12110,12141,7753,100,43,98,26,0,5204,15943,467,0,10.66,6.99,2.41,20.68,6.64,0.61,31.78,6.63,3.3,3.32,5.33,78.1,22.19,73.12,32890,32141,32963,40,27184,31867,1,
18/08/2020,18:47:03,ERR,ErrD,1,12110,12141,7775,100,0,97,26,0,5204,18705,295,0,10.81,7.04,2.3,20.71,6.66,0.61,31.78,6.63,3.3,3.32,5.33,81.43,22.23,73.62,31918,33240,32318,40,23537,33387,0,
18/08/2020,18:47:04,ERR,ErrD,1,12110,12141,7797,100,0,99,21,0,5204,18705,205,0,10.47,7.03,2.3,20.71,6.64,0.61,31.78,6.63,3.3,3.32,5.33,80.76,22.24,72.79,32951,34730,31804,40,26662,34671,0,
18/08/2020,18:47:04,ERR,ErrD,1,12110,12141,7819,100,100,99,21,0,6901,13400,360,0,10.49,7,2.85,20.68,6.65,1.12,31.94,6.63,3.3,3.32,5.33,79.09,22.28,74.5,32583,32677,33360,40,20617,30195,0,
18/08/2020,18:47:04,ERR,ErrD,1,12086,12116,7841,100,24,99,21,0,6903,16725,524,0,10.84,7.03,2.85,20.75,6.63,1.12,31.94,6.63,3.3,3.32,5.33,77.11,22.3,75.31,33158,30006,33112,40,25092,34240,0,
18/08/2020,18:47:04,ERR,ErrD,1,12086,12116,7863,100,0,99,20,0,6903,18417,696,0,10.66,7.04,2.85,20.78,6.67,0.48,32,6.63,3.3,3.32,5.33,76.83,22.32,75.78,32446,33311,32819,40,23777,31974,0,
18/08/2020,18:47:04,ERR,ErrD,1,12086,12116,7885,100,0,99,20,0,6903,18417,860,0,10.81,7.06,2.64,20.81,6.68,0.48,32,6.63,3.3,3.32,5.33,77.11,22.29,76.24,32417,33206,32160,40,25982,31982,0,
18/08/2020,18:47:05,ERR,ErrD,1,12086,12116,7907,100,100,98,20,0,6916,13400,1024,0,10.62,7.04,2.64,20.73,6.64,0.48,32,6.63,3.3,3.32,5.33,79.94,22.38,76.66,33240,31488,33248,40,31866,33546,0,
18/08/2020,18:47:05,ERR,ErrD,1,12086,12116,7929,100,0,98,20,0,6904,17824,1187,0,10.48,7.04,2.68,20.69,6.66,0.45,32.07,6.63,3.3,3.32,5.33,80.27,22.35,77.36,32365,33189,32732,40,27466,33731,0,
18/08/2020,18:47:05,ERR,ErrD,1,12086,12116,7951,100,0,98,20,0,6904,17824,1351,0,10.53,6.99,2.68,20.78,6.64,0.45,32.07,6.63,3.3,3.32,5.33,79.95,22.46,77.55,33553,33123,32733,40,24859,31498,0,
18/08/2020,18:47:05,ERR,ErrD,1,12086,12116,7973,100,0,98,20,0,6902,17824,1515,0,10.64,6.99,2.68,20.83,6.64,0.02,32.07,6.63,3.3,3.32,5.33,80.65,22.39,78.02,32143,32039,32587,40,26019,32220,0,
18/08/2020,18:47:05,ERR,ErrD,1,12086,12116,7995,100,0,98,21,0,6921,17824,1680,0,11,7,2.57,20.78,6.67,0.02,32.07,6.63,3.3,3.32,5.33,78.03,22.41,78.49,33137,33781,32622,40,26228,33297,1,
18/08/2020,18:47:06,ERR,ErrD,1,12086,12116,8017,100,100,99,21,0,8318,13400,1778,0,10.39,7,2.57,20.74,6.64,0.02,32.07,6.63,3.3,3.32,5.33,77.23,22.49,78.69,31766,32982,32705,40,25560,32438,0,
18/08/2020,18:47:06,ERR,ErrD,1,12086,12116,8039,100,100,99,21,0,6900,13400,1614,0,10.82,7.02,2.46,20.75,6.66,0.33,32.12,6.63,3.3,3.32,5.33,77.07,22.5,79.56,33873,34635,32938,40,22571,33901,1,
18/08/2020,18:47:06,ERR,ErrD,1,12061,12031,8061,100,100,100,21,0,5205,13400,1450,0,10.73,7.05,2.46,20.85,6.67,0.33,32.12,6.63,3.3,3.32,5.33,79.13,22.55,79.96,33211,32728,32916,40,22693,30685,0,
18/08/2020,18:47:06,ERR,ErrD,1,12061,12031,8083,100,55,100,19,0,6907,15456,1286,0,10.55,6.93,2.46,20.76,6.64,1.61,32.34,6.63,3.3,3.32,5.33,79.52,22.58,80.64,34274,31749,32982,40,21990,34463,0,
18/08/2020,18:47:06,ERR,ErrD,1,12061,12031,8105,100,100,100,20,0,6925,13400,1122,0,10.84,7.02,2.36,20.8,6.66,1.61,32.34,6.63,3.3,3.32,5.33,81.53,22.65,81.14,31103,33384,32586,40,22290,33822,0,
18/08/2020,18:47:07,ERR,ErrD,1,12061,12031,8127,100,100,100,20,0,6622,13400,960,0,10.65,7.04,2.36,20.89,6.67,1.61,32.34,6.63,3.3,3.32,5.33,80.23,22.64,81.21,33938,33269,33504,40,28767,33758,0,
18/08/2020,18:47:07,ERR,ErrD,1,12061,12031,8149,100,100,100,20,0,5209,13400,795,0,10.71,7.02,2.62,20.87,6.65,0,32.34,6.63,3.3,3.32,5.33,78.85,22.59,80.55,33195,31707,33579,40,24863,31161,1,
18/08/2020,18:47:07,ERR,ErrD,1,12061,12031,8171,100,81,98,27,0,8602,14449,631,0,10.89,7,2.62,20.87,6.66,0,32.34,6.64,3.3,3.33,5.33,81.2,22.64,81,33994,34035,32344,40,22445,31673,0,
18/08/2020,18:47:07,ERR,ErrD,1,12061,12031,8193,100,0,92,27,0,6903,18819,467,0,10.74,7.06,2.62,20.88,6.64,0.95,32.47,6.64,3.3,3.33,5.33,79.93,22.64,82.7,32933,33151,33293,40,26163,32537,0,
18/08/2020,18:47:07,ERR,ErrD,1,12061,12031,8215,100,100,86,27,0,6912,13400,302,0,10.65,7,2.96,20.87,6.67,0.95,32.47,6.64,3.3,3.33,5.33,83.8,22.68,83.2,31717,33447,30784,40,33657,34336,0,
18/08/2020,18:47:08,ERR,ErrD,1,12061,12031,8237,100,75,82,27,0,6904,14670,180,0,11.05,7.06,2.96,21.02,6.66,0.95,32.47,6.64,3.31,3.32,5.32,80.82,22.68,83.9,32545,32708,33315,40,30862,34359,0,
18/08/2020,18:47:08,ERR,ErrD,1,12061,12031,8259,100,75,80,31,0,7925,14670,353,0,10,6.97,2.81,20.92,6.61,0.63,32.56,6.64,3.31,3.32,5.33,78.2,22.74,84.33,34170,32597,31793,40,33755,35331,1,
18/08/2020,18:47:08,ERR,ErrD,1,12050,12050,8281,100,0,83,31,0,6917,18165,524,0,10.59,7.03,2.81,21.06,6.65,0.63,32.56,6.64,3.31,3.32,5.33,78.46,22.73,84.81,32051,34246,32880,40,31931,33929,0,
18/08/2020,18:47:08,ERR,ErrD,1,12050,12050,8303,100,100,89,31,0,6928,13400,689,0,10.66,7.02,2.81,21.03,6.65,0.35,32.61,6.64,3.31,3.32,5.33,77.24,22.77,85.21,33233,32125,32509,40,30163,33501,0,
18/08/2020,18:47:08,ERR,ErrD,1,12050,12050,8325,100,100,94,31,0,6615,13400,844,0,10.42,7,3.5,21.05,6.63,0.35,32.61,6.64,3.31,3.32,5.32,77.14,22.77,85.62,33985,33523,32935,40,30670,33529,0,
18/08/2020,18:47:09,ERR,ErrD,1,12050,12050,8347,100,0,97,27,0,6918,17960,1008,0,10.24,7,3.5,21.01,6.61,0.35,32.61,6.64,3.31,3.32,5.33,77.15,22.89,85.95,34280,34285,32767,40,26685,32697,0,
18/08/2020,18:47:09,ERR,ErrD,1,12050,12050,8369,100,0,97,27,0,6918,18479,1179,0,10.44,6.99,2.53,20.93,6.64,0.41,32.67,6.64,3.31,3.32,5.33,78.62,22.85,86.3,32536,31685,33317,40,27597,29763,0,
18/08/2020,18:47:09,ERR,ErrD,1,12050,12050,8391,100,0,96,27,0,6901,18479,1344,0,10.64,7.01,2.53,21.07,6.65,0.41,32.67,6.64,3.3,3.33,5.33,78.91,22.89,87,32187,33949,33305,40,22793,31257,0,
18/08/2020,18:47:09,ERR,ErrD,1,12050,12050,8413,100,100,95,27,0,6907,13400,1508,0,10.57,7.04,2.53,21.01,6.67,1.26,32.84,6.64,3.3,3.33,5.33,79.78,22.83,87.22,33333,33065,32989,40,25540,34752,0,
18/08/2020,18:47:09,ERR,ErrD,1,12050,12050,8435,100,29,96,21,0,6624,16491,1671,0,10.69,7.04,3.38,21.04,6.67,1.26,32.84,6.64,3.3,3.33,5.33,80.03,22.97,87.54,33162,33013,33387,40,19198,30438,0,
18/08/2020,18:47:10,ERR,ErrD,1,12050,12050,8457,100,29,97,21,0,5204,16491,1786,0,10.71,7.02,3.38,21.11,6.66,1.26,32.84,6.64,3.3,3.33,5.33,82.33,22.92,87.95,35640,32870,33015,40,27740,33741,0,
18/08/2020,18:47:10,ERR,ErrD,1,12050,12050,8479,100,29,97,21,0,6901,16491,1622,0,10.39,7,2.56,21.12,6.64,0.09,32.85,6.64,3.31,3.32,5.33,77.05,22.99,89.04,32936,32980,32960,40,28534,31761,0,
18/08/2020,18:47:10,ERR,ErrD,1,12050,12080,8501,100,100,98,21,0,8324,13400,1458,0,10.74,7.05,2.56,21.2,6.66,0.09,32.85,6.64,3.31,3.32,5.33,80.62,22.95,88.95,32490,30469,33866,40,31079,34125,0,
18/08/2020,18:47:10,ERR,ErrD,1,12050,12080,8523,100,100,99,21,0,5204,13400,1293,0,11,7.03,2.56,21.13,6.68,0.39,32.91,6.64,3.31,3.32,5.33,79.83,23.05,89.4,33219,33487,33311,40,26268,33524,0,
18/08/2020,18:47:10,ERR,ErrD,1,12050,12080,8545,100,100,98,21,0,5204,13400,1130,0,10.84,7.05,3.79,21.21,6.65,0.39,32.91,6.64,3.31,3.32,5.33,81.03,23.1,89.08,30631,33294,32616,40,26532,30670,0,
18/08/2020,18:47:11,ERR,ErrD,1,12050,12080,8566,100,7,96,21,0,5204,17380,967,0,10.59,7.02,3.79,21.17,6.68,0.39,32.91,6.64,3.31,3.32,5.33,82.39,23.05,89.12,31971,33880,32324,40,32287,35206,0,
18/08/2020,18:47:11,ERR,ErrD,1,12050,12080,8588,100,0,95,21,0,5204,20043,795,0,10.67,7.03,2.71,21.22,6.68,0.1,32.92,6.64,3.31,3.32,5.33,82.7,23.04,90.67,32673,33390,32740,40,29043,32932,0,
18/08/2020,18:47:11,ERR,ErrD,1,12050,12080,8610,100,100,95,20,0,8315,13400,638,0,10.86,7.07,2.71,21.15,6.64,0.1,32.92,6.64,3.31,3.32,5.33,80.17,23.15,91.28,33906,32989,32080,40,28288,32832,0,
18/08/2020,18:47:11,ERR,ErrD,1,12050,12080,8632,100,94,96,23,0,6920,13898,475,0,10.9,7.05,2.71,21.11,6.65,0.44,32.98,6.64,3.3,3.33,5.33,79.04,23.15,91.67,31865,34585,32383,40,23814,31587,1,
18/08/2020,18:47:11,ERR,ErrD,1,12050,12080,8654,100,5,96,23,0,6903,17454,302,0,10.59,7.01,2.54,21.2,6.63,0.44,32.98,6.64,3.3,3.33,5.33,76.08,23.2,92.01,33634,34232,33271,40,24802,34190,0,
18/08/2020,18:47:12,ERR,ErrD,1,12050,12080,8676,100,5,99,23,0,5203,17454,196,0,10.59,7.01,2.54,21.22,6.66,0.44,32.98,6.64,3.3,3.33,5.33,80.34,23.15,92.41,32734,29976,32285,40,26892,33541,0,
18/08/2020,18:47:12,ERR,ErrD,1,12050,12080,8698,100,5,99,23,0,5203,17454,353,0,10.54,7.03,2.49,21.2,6.67,1.1,33.14,6.63,3.31,3.31,5.33,80.26,23.19,92.83,32701,33367,32723,40,29858,33762,0,
18/08/2020,18:47:12,ERR,ErrD,1,12056,12027,8720,100,100,98,25,0,8326,13400,517,0,10.79,7.04,2.49,21.19,6.67,1.1,33.14,6.63,3.31,3.31,5.33,83.88,23.16,93.42,32482,32029,32536,40,27375,31459,0,
18/08/2020,18:47:12,ERR,ErrD,1,12056,12027,8742,100,26,98,25,0,6901,16614,689,0,11.09,7.01,2.49,21.24,6.68,0.05,33.14,6.63,3.31,3.31,5.33,76.95,23.29,93.84,34225,34282,32620,40,24754,32399,0,
18/08/2020,18:47:12,ERR,ErrD,1,12056,12027,8764,100,26,98,25,0,6901,16614,852,0,10.31,7.04,2.28,21.22,6.65,0.05,33.14,6.63,3.31,3.31,5.33,79.91,23.28,94.53,32826,31013,33597,40,28162,34435,0,
18/08/2020,18:47:13,ERR,ErrD,1,12056,12027,8786,100,26,98,25,0,8313,16614,1008,0,10.93,7.03,2.28,21.23,6.68,0.05,33.14,6.64,3.3,3.34,5.32,82.54,23.29,94.57,32105,31922,32339,40,23181,33898,0,
18/08/2020,18:47:13,ERR,ErrD,1,12056,12027,8808,100,100,98,26,0,8320,13400,1179,0,10.81,7.02,2.36,21.3,6.65,0.05,33.15,6.64,3.3,3.34,5.33,78.27,23.36,94.97,32250,33863,32308,40,30095,32733,0,
18/08/2020,18:47:13,ERR,ErrD,1,12056,12027,8830,100,100,98,26,0,6902,13400,1344,0,10.79,7.04,2.36,21.27,6.66,0.05,33.15,6.64,3.3,3.34,5.33,83.76,23.36,95.57,32089,31888,33019,40,21243,32492,0,
18/08/2020,18:47:13,ERR,ErrD,1,12056,12027,8852,100,43,98,26,0,6904,15968,1508,0,10.86,7.05,2.36,21.31,6.65,0.22,33.18,6.65,3.31,3.34,5.33,78.1,23.46,95.78,30391,32011,31034,40,30145,33778,0,
18/08/2020,18:47:13,ERR,ErrD,1,12056,12027,8874,100,43,98,26,0,5202,15968,1671,0,10.46,7.05,3.11,21.34,6.64,0.22,33.18,6.65,3.31,3.34,5.33,80.27,23.43,96.18,35017,34281,33593,40,22606,32640,0,
18/08/2020,18:47:14,ERR,ErrD,1,12056,12027,8896,100,0,98,21,0,5202,18583,1786,0,10.68,7.02,3.11,21.3,6.65,0.22,33.18,6.65,3.31,3.34,5.33,79.79,23.38,96.55,34199,32828,32766,40,23923,31135,0,
18/08/2020,18:47:14,ERR,ErrD,1,12056,12027,8918,100,100,98,21,0,6915,13400,1622,0,10.52,7.01,3.11,21.33,6.65,1,33.32,6.65,3.31,3.34,5.33,81.51,23.48,96.97,32807,32207,34237,40,26313,35667,1,
18/08/2020,18:47:14,ERR,ErrD,1,12014,12044,8940,100,100,99,21,0,4909,13400,1458,0,10.8,7.02,3.11,21.35,6.65,1,33.32,6.64,3.31,3.32,5.33,79.52,23.49,97.28,32369,31430,33163,40,29476,30463,1,
18/08/2020,18:47:14,ERR,ErrD,1,12014,12044,8962,100,0,98,19,0,4909,18416,1286,0,10.81,7.05,3.11,21.54,6.68,0.68,33.42,6.64,3.31,3.32,5.33,78.94,23.54,97.66,32820,29399,34186,40,27408,32085,1,
18/08/2020,18:47:14,ERR,ErrD,1,12014,12044,8984,100,0,99,19,0,4909,18416,1130,0,10.72,7.03,2.97,21.48,6.67,0.68,33.42,6.64,3.31,3.32,5.33,79.07,23.57,98.03,32157,34147,33336,40,25469,32919,1,
18/08/2020,18:47:15,ERR,ErrD,1,12014,12044,9006,100,100,99,22,0,8322,13400,967,0,10.86,6.99,2.97,21.34,6.63,0.68,33.42,6.64,3.31,3.32,5.32,80.05,23.53,98.37,31561,34459,33549,40,27455,32146,0,
18/08/2020,18:47:15,ERR,ErrD,1,12014,12044,9028,100,19,99,22,0,8317,16913,803,0,10.18,7.01,2.23,21.4,6.66,0.24,33.45,6.64,3.3,3.33,5.33,79.96,23.69,98.74,32770,34862,32316,40,27402,35244,0,
18/08/2020,18:47:15,ERR,ErrD,1,12014,12044,9050,100,19,98,22,0,8310,16913,631,0,10.42,6.97,2.23,21.39,6.6,0.24,33.45,6.64,3.3,3.33,5.33,80.88,23.69,99.19,32004,34474,33057,40,29668,32325,0,
18/08/2020,18:47:15,ERR,ErrD,1,12014,12044,9072,100,19,98,22,0,6902,16913,467,0,10.69,7.03,2.23,21.49,6.67,1.11,33.6,6.64,3.3,3.33,5.33,85.17,23.68,99.5,31563,33131,33067,40,26440,31207,0,
18/08/2020,18:47:15,ERR,ErrD,1,12014,12044,9094,100,19,97,19,0,5207,16913,311,0,10.83,7.07,2.97,21.37,6.67,1.11,33.6,6.64,3.31,3.32,5.33,81.41,23.7,99.91,31888,32885,33476,40,28609,33284,0,
18/08/2020,18:47:16,ERR,ErrD,1,12014,12044,9116,100,100,96,26,0,8327,13400,196,0,10.81,7.05,2.97,21.51,6.64,1.11,33.6,6.64,3.31,3.32,5.33,82.16,23.79,100.35,30401,33458,34777,40,26786,33229,1,
18/08/2020,18:47:16,ERR,ErrD,1,12014,12044,9138,100,100,97,26,0,5240,13400,360,0,10.8,7.07,3,21.5,6.67,0.44,33.67,6.64,3.31,3.32,5.32,79.83,23.77,99.29,32594,31920,32721,40,25815,34616,0,
18/08/2020,18:47:16,ERR,ErrD,1,12037,12127,9160,100,100,97,26,0,5240,13400,524,0,10.75,7.02,3,21.52,6.66,0.44,33.67,6.64,3.31,3.32,5.33,78.45,23.79,100.6,31294,32122,32895,40,23612,34742,1,
18/08/2020,18:47:16,ERR,ErrD,1,12037,12127,9182,100,0,97,26,0,5240,18498,689,0,10.73,7.03,3,21.66,6.67,0.11,33.68,6.64,3.31,3.32,5.33,85.2,23.82,101.83,32899,34224,32636,40,25209,34399,0,
18/08/2020,18:47:16,ERR,ErrD,1,12037,12127,9204,100,100,99,26,0,8610,13400,852,0,10.76,7,3.16,21.66,6.65,0.11,33.68,6.64,3.31,3.32,5.33,81.47,23.89,100.67,32183,34310,31145,40,27827,33163,1,
18/08/2020,18:47:17,ERR,ErrD,1,12037,12127,9226,100,100,99,21,0,5204,13400,1015,0,10.8,7.02,3.16,21.57,6.68,0.11,33.68,6.64,3.31,3.32,5.33,82.87,23.87,102.34,32759,34042,31638,40,30411,34986,1,
18/08/2020,18:47:17,ERR,ErrD,1,12037,12127,9247,100,0,99,19,0,5204,18543,1179,0,10.5,7.03,3.3,21.6,6.64,0.09,33.69,6.64,3.31,3.32,5.33,82.54,23.96,102.69,33021,35349,32615,40,25456,32605,1,
18/08/2020,18:47:17,ERR,ErrD,1,12037,12127,9269,100,0,98,19,0,5204,18543,1344,0,10.42,7.07,3.3,21.63,6.65,0.09,33.69,6.64,3.31,3.32,5.33,79.3,24.03,103.09,32452,33777,33892,40,29056,35136,0,
18/08/2020,18:47:17,ERR,ErrD,1,12037,12127,9291,100,0,98,21,0,5204,18543,1508,0,10.84,7.04,3.3,21.68,6.66,0.59,33.77,6.64,3.31,3.32,5.33,78.24,23.98,103.45,33056,33297,32154,40,24776,31098,1,
18/08/2020,18:47:17,ERR,ErrD,1,12037,12127,9313,100,100,97,21,0,8311,13400,1671,0,10.42,7,2.27,21.58,6.64,0.59,33.77,6.64,3.31,3.32,5.33,80.95,24,102.32,31309,33973,32885,40,27879,32454,0,
18/08/2020,18:47:18,ERR,ErrD,1,12037,12127,9334,100,0,97,21,0,8311,18291,1786,0,10.34,6.95,2.27,21.54,6.66,0.59,33.77,6.64,3.31,3.32,5.33,79.11,24.08,104.22,33121,33741,33073,40,29649,31910,0,
18/08/2020,18:47:18,ERR,ErrD,1,12037,12127,9356,100,0,96,21,0,6904,18901,1614,0,10.87,7.01,2.62,21.7,6.67,-0.02,33.77,6.64,3.31,3.32,5.33,83.14,24.02,104.56,34226,32787,32872,40,30904,31384,0,
18/08/2020,18:47:18,ERR,ErrD,1,12063,12033,9378,100,0,95,19,0,5207,18901,1458,0,10.66,7.01,2.62,21.77,6.63,-0.02,33.77,6.64,3.31,3.32,5.33,81.85,24.11,105.65,32319,31936,32767,40,29695,33089,0,
18/08/2020,18:47:17,ERR,ErrD,1,12063,12033,9400,100,100,96,27,0,10324,13400,1293,0,10.89,7.08,2.62,21.72,6.67,0.59,33.86,6.64,3.3,3.34,5.33,78,24.21,105.41,33517,33036,32707,40,28524,32187,1,
18/08/2020,18:47:18,ERR,ErrD,1,12063,12033,9422,100,0,96,27,0,8312,18014,1122,0,10.49,7.03,2.46,21.73,6.68,0.59,33.86,6.64,3.3,3.34,5.33,79.45,24.29,105.55,31757,32481,31208,40,27205,31125,1,
18/08/2020,18:47:18,ERR,ErrD,1,12063,12033,9444,100,0,95,27,0,6903,18014,960,0,10.62,7.02,2.46,21.71,6.68,0.59,33.86,6.64,3.3,3.34,5.33,80.24,24.27,105.69,33264,34130,32778,40,28530,31810,0,
18/08/2020,18:47:18,ERR,ErrD,1,12063,12033,9466,100,0,90,28,0,6911,18014,795,0,10.58,7.01,2.79,21.88,6.66,0.28,33.89,6.65,3.31,3.33,5.33,81.73,24.21,106.21,33379,33090,32767,40,29774,31268,0,
18/08/2020,18:47:18,ERR,ErrD,1,12063,12033,9488,100,0,85,28,0,8313,18014,631,0,10.79,7.04,2.79,21.8,6.67,0.28,33.89,6.65,3.31,3.33,5.33,79.75,24.32,106.51,33366,33139,33276,40,27178,30874,0,
18/08/2020,18:47:18,ERR,ErrD,1,12063,12033,9510,100,100,83,28,0,7936,13400,459,0,10.48,6.99,2.79,21.88,6.64,1.03,34.04,6.65,3.31,3.33,5.33,78.76,24.32,106.78,32224,33024,34177,40,27526,33874,1,
18/08/2020,18:47:19,ERR,ErrD,1,12063,12033,9532,100,100,83,28,0,7936,13400,295,0,10.4,6.97,2.21,21.95,6.64,1.03,34.04,6.65,3.31,3.33,5.33,78.65,24.41,107.14,32098,34325,32913,40,25229,32207,0,
18/08/2020,18:47:19,ERR,ErrD,1,12063,12033,9554,100,100,89,28,0,7575,13591,205,0,10.33,7.03,2.21,21.81,6.66,1.03,34.04,6.64,3.3,3.34,5.33,80.2,24.43,105.89,32060,32312,31802,40,26241,36189,0,
18/08/2020,18:47:19,ERR,ErrD,1,12063,12033,9576,100,0,95,26,0,7575,18022,369,0,10.56,7.03,2.24,21.91,6.66,1.77,34.28,6.64,3.3,3.34,5.33,81.78,24.44,107.78,30077,31944,32213,40,27213,33598,0,
18/08/2020,18:47:19,ERR,ErrD,1,12091,12031,9598,100,0,100,20,0,7575,18022,533,0,10.71,7.02,2.24,21.86,6.66,1.77,34.28,6.64,3.3,3.34,5.33,85.07,24.5,108.08,32889,31416,32425,40,26034,32940,0,
18/08/2020,18:47:19,ERR,ErrD,1,12091,12031,9620,100,100,100,20,0,6645,13400,696,0,10.93,7,2.24,21.98,6.66,1.43,34.48,6.63,3.3,3.32,5.33,82.69,24.43,108.61,33196,33923,32574,40,28473,34638,0,
18/08/2020,18:47:20,ERR,ErrD,1,12091,12031,9641,100,0,99,20,0,6645,19002,860,0,10.73,7,2.22,22.04,6.65,1.43,34.48,6.63,3.3,3.32,5.33,79.35,24.53,109.01,34916,31706,32883,40,28447,33992,0,
18/08/2020,18:47:20,ERR,ErrD,1,12091,12031,9663,100,0,99,19,0,6645,19002,1024,0,10.42,7.01,2.22,22.02,6.64,1.43,34.48,6.63,3.3,3.32,5.33,82.75,24.58,109.31,31630,33299,32132,40,25924,33406,0,
18/08/2020,18:47:20,ERR,ErrD,1,12091,12031,9685,100,0,99,19,0,6914,19002,1187,0,10.76,7.04,2.29,21.93,6.66,0.61,34.57,6.63,3.3,3.32,5.33,81.41,24.59,109.71,33544,32595,32767,40,23906,34121,0,
18/08/2020,18:47:20,ERR,ErrD,1,12091,12031,9707,100,100,99,19,0,8310,13400,1351,0,11,7.08,2.29,21.99,6.69,0.61,34.57,6.64,3.3,3.33,5.33,76.85,24.65,110.06,34761,32740,32767,40,27649,31908,1,
18/08/2020,18:47:20,ERR,ErrD,1,12091,12031,9729,100,0,99,19,0,8310,19024,1524,0,10.62,7.05,2.29,21.97,6.69,0.06,34.58,6.64,3.3,3.33,5.33,79.39,24.66,110.33,31223,32915,32453,40,24668,31144,0,
18/08/2020,18:47:21,ERR,ErrD,1,12091,12031,9751,100,0,99,19,0,8314,19024,1680,0,10.62,7.03,2.81,22.06,6.7,0.06,34.58,6.64,3.3,3.33,5.32,82.72,24.73,110.73,32646,32439,33615,40,26098,32480,1,
18/08/2020,18:47:21,ERR,ErrD,1,12091,12031,9773,100,0,99,19,0,5204,19024,1778,0,10.51,7.02,2.81,22.04,6.69,0.06,34.58,6.64,3.3,3.33,5.33,80.07,24.64,110.96,30041,31110,31878,40,30045,32595,1,
18/08/2020,18:47:21,ERR,ErrD,1,12091,12031,9795,100,0,98,19,0,8334,19024,1614,0,11.08,7.07,3.08,22.06,6.69,0.96,34.71,6.64,3.3,3.34,5.33,81.57,24.71,111.29,32445,32975,32767,40,27559,30718,0,
18/08/2020,18:47:21,ERR,ErrD,1,12061,12061,9817,100,100,98,19,0,8315,13400,1442,0,10.69,7.06,3.08,22.06,6.69,0.96,34.71,6.64,3.3,3.34,5.33,76.75,24.76,111.63,33955,30644,33867,40,29875,33383,0,
18/08/2020,18:47:21,ERR,ErrD,1,12061,12061,9839,100,100,98,19,0,8315,13400,1277,0,10.78,7.06,3.08,22.14,6.67,0.25,34.75,6.64,3.3,3.34,5.33,78.68,24.81,112.04,31820,33001,33461,40,31253,32884,1,
18/08/2020,18:47:22,ERR,ErrD,1,12061,12061,9861,100,0,98,19,0,8315,18522,1113,0,10.82,7.01,3,22.06,6.66,0.25,34.75,6.64,3.3,3.33,5.33,83.11,24.77,112.29,31135,33168,33491,40,29914,31917,0,
18/08/2020,18:47:22,ERR,ErrD,1,12061,12061,9883,100,0,99,19,0,8315,18522,950,0,10.77,7.04,3,22.14,6.65,0.25,34.75,6.64,3.3,3.33,5.33,80.89,24.82,112.62,32592,33839,33123,40,23072,33668,1,
18/08/2020,18:47:22,ERR,ErrD,1,12061,12061,9905,100,100,100,19,0,8340,13400,787,0,10.77,7.05,2.39,22.21,6.7,0.15,34.77,6.64,3.3,3.33,5.33,81.33,24.77,112.96,31128,32663,33290,41,30938,31320,1,
18/08/2020,18:47:22,ERR,ErrD,1,12061,12061,9927,100,100,100,20,0,4914,13400,622,0,10.78,7.05,2.39,22.12,6.64,0.15,34.77,6.64,3.3,3.33,5.33,82.35,24.89,113.26,33146,33524,34213,41,26574,32602,1,
18/08/2020,18:47:22,ERR,ErrD,1,12061,12061,9949,100,65,100,20,0,6906,15089,467,0,10.87,7.05,2.39,22.17,6.68,0.15,34.77,13.76,6.91,6.86,5.33,81.34,24.77,113.48,32520,33152,33878,40,26549,31301,1,
18/08/2020,18:47:23,ERR,ErrD,1,12061,12061,9971,100,0,99,20,0,5214,21099,295,0,11.02,7.01,2.95,22.22,6.69,1.4,34.97,13.76,6.91,6.86,5.33,85.5,24.93,113.93,31152,30675,30595,40,25593,33552,1,
18/08/2020,18:47:23,ERR,ErrD,1,12061,12061,9993,100,0,99,20,0,5214,21099,205,0,10.34,6.97,2.95,22.09,6.61,1.4,34.97,13.76,6.91,6.86,5.33,79.06,24.83,112.61,30730,34550,32020,40,29787,32536,1,
18/08/2020,18:47:23,ERR,ErrD,1,12061,12061,10015,100,100,99,20,0,7999,13400,369,0,10.39,7.01,2.28,22.17,6.64,0.06,34.98,6.64,3.3,3.34,5.33,81.23,24.96,114.48,33731,31401,33269,40,28444,32444,1,
18/08/2020,18:47:23,ERR,ErrD,1,12063,12063,10037,100,66,98,20,0,8335,15031,533,0,10.48,6.99,2.28,22.23,6.63,0.06,34.98,6.64,3.3,3.34,5.33,80.68,24.97,113.97,33824,34181,33356,40,29887,34462,0,
18/08/2020,18:47:23,ERR,ErrD,1,12063,12063,10059,100,0,99,20,0,8314,17866,696,0,10.67,7.04,2.28,22.18,6.66,0.06,34.98,6.64,3.3,3.34,5.33,80.6,25.09,115.09,33151,33276,32767,41,25415,31797,0,
18/08/2020,18:47:24,ERR,ErrD,1,12063,12063,10081,100,0,99,20,0,6244,17866,860,0,10.21,6.99,2.43,22.29,6.65,0.05,34.98,6.64,3.3,3.34,5.33,80.08,25.02,115.41,32972,33015,33036,40,24002,33706,0,
18/08/2020,18:47:24,ERR,ErrD,1,12063,12063,10103,100,100,99,20,0,8607,13400,1024,0,10.97,7.05,2.43,22.26,6.66,0.05,34.98,6.65,3.31,3.33,5.33,84.26,24.94,115.86,32814,32940,32489,40,25425,31018,0,
18/08/2020,18:47:24,ERR,ErrD,1,12063,12063,10125,100,33,99,20,0,7815,16342,1187,0,10.5,7.02,2.53,22.32,6.65,0.61,35.07,6.65,3.31,3.33,5.33,81.04,25.02,115.93,32597,33997,32878,40,24961,31562,0,
18/08/2020,18:47:24,ERR,ErrD,1,12063,12063,10147,100,12,100,20,0,7815,17173,1351,0,10.62,7.03,2.53,22.34,6.66,0.61,35.07,6.65,3.31,3.33,5.33,77.93,25.08,116.33,31207,32963,32851,41,27575,36207,0,
18/08/2020,18:47:24,ERR,ErrD,1,12063,12063,10169,100,12,100,20,0,5208,17173,1515,0,10.88,7.03,2.53,22.35,6.64,0.61,35.07,6.65,3.31,3.33,5.33,82.06,25.09,116.71,32550,33179,33647,40,26160,31745,0,
18/08/2020,18:47:25,ERR,ErrD,1,12063,12063,10188,100,66,98,20,0,8310,15019,1680,0,10.94,7.04,2.3,22.33,6.66,0.3,35.11,6.65,3.31,3.33,5.33,82.35,25.14,115.12,33941,31428,33678,40,29139,34229,1,
18/08/2020,18:47:25,ERR,ErrD,1,12063,12063,10210,100,100,97,20,0,6954,13400,1769,0,10.86,7.04,2.3,22.35,6.68,0.3,35.11,6.65,3.31,3.33,5.33,81.44,25.15,117.37,32612,33013,32265,41,24509,32286,1,
18/08/2020,18:47:25,ERR,ErrD,1,12063,12063,10232,100,46,97,20,0,8116,15817,1614,0,10.84,7.04,2.94,22.4,6.67,1.23,35.28,6.65,3.31,3.33,5.33,81.15,25.26,117.6,35295,33183,32767,41,28649,33841,1,
18/08/2020,18:47:25,ERR,ErrD,1,12044,12044,10254,100,46,96,20,0,8309,15817,1450,0,11.21,7.03,2.94,22.39,6.67,1.23,35.28,6.65,3.31,3.33,5.33,79.98,25.16,117.86,31766,33369,32975,41,21586,31596,0,
18/08/2020,18:47:25,ERR,ErrD,1,12044,12044,10276,100,4,97,20,0,8309,17501,1277,0,10.72,7.05,2.94,22.44,6.68,1.23,35.28,6.65,3.31,3.33,5.33,79.97,25.26,118.2,34534,32666,32903,41,24963,32387,1,
18/08/2020,18:47:26,ERR,ErrD,1,12044,12044,10298,100,4,97,20,0,5204,17501,1113,0,10.38,7.03,2.58,22.45,6.65,0.7,35.38,6.65,3.31,3.33,5.33,80.01,25.27,118.49,30717,32105,33035,41,25153,33193,0,
18/08/2020,18:47:26,ERR,ErrD,1,12044,12044,10320,100,100,97,20,0,6920,13400,950,0,10.66,7.02,2.58,22.5,6.64,0.7,35.38,6.64,3.3,3.33,5.33,81.47,25.3,118.73,32036,32746,32869,41,22521,29599,1,
18/08/2020,18:47:26,ERR,ErrD,1,12044,12044,10342,100,0,97,20,0,6907,18486,795,0,10.81,7.01,2.73,22.37,6.7,0.46,35.45,6.64,3.3,3.33,5.33,82.62,25.39,119.05,31151,32465,32700,41,24748,33214,1,
18/08/2020,18:47:26,ERR,ErrD,1,12044,12044,10364,100,0,97,20,0,6907,18486,622,0,10.5,7.04,2.73,22.47,6.68,0.46,35.45,6.64,3.3,3.33,5.33,82.7,25.35,119.33,33482,28714,32974,41,26070,33020,0,
18/08/2020,18:47:26,ERR,ErrD,1,12044,12044,10386,100,0,98,20,0,6904,18486,459,0,10.71,7.01,2.73,22.47,6.65,0.46,35.45,6.64,3.3,3.33,5.32,81.46,25.39,119.61,34514,34380,33027,41,30518,35283,0,
18/08/2020,18:47:27,ERR,ErrD,1,12044,12044,10408,100,100,98,20,0,6904,13400,295,0,10.75,7.04,3.53,22.48,6.71,0.78,35.55,6.64,3.31,3.32,5.33,82.75,25.46,120.06,32679,31342,33647,41,26622,34698,0,
18/08/2020,18:47:27,ERR,ErrD,1,12044,12044,10430,100,0,98,20,0,6904,18256,205,0,10.66,7.04,3.53,22.51,6.68,0.78,35.55,6.64,3.31,3.32,5.33,80.13,25.47,118.68,34279,33524,31741,41,27589,33145,1,
18/08/2020,18:47:27,ERR,ErrD,1,12044,12044,10452,100,0,100,20,0,6904,18256,369,0,10.71,7.05,2.3,22.51,6.68,1.39,35.75,6.64,3.31,3.32,5.33,81.39,25.49,120.83,32568,34600,33583,41,34320,34700,0,
18/08/2020,18:47:27,ERR,ErrD,1,12067,12067,10474,100,0,99,20,0,5205,18256,533,0,10.82,7.04,2.3,22.53,6.65,1.39,35.75,6.65,3.31,3.33,5.33,82.27,25.5,120.7,30521,31364,33708,41,30831,33814,1,
18/08/2020,18:47:27,ERR,ErrD,1,12067,12067,10496,100,0,97,20,0,5202,18256,696,0,10.81,7.05,2.3,22.58,6.67,1.39,35.75,6.65,3.31,3.33,5.33,80.89,25.56,120.99,33354,34162,31278,41,24756,37087,0,
18/08/2020,18:47:28,ERR,ErrD,1,12067,12067,10518,100,100,96,19,0,6920,13400,860,0,10.87,7.03,2.23,22.65,6.71,0.48,35.81,6.65,3.31,3.33,5.33,81.94,25.62,121.27,32113,34200,32767,41,24361,32833,0,
18/08/2020,18:47:28,ERR,ErrD,1,12067,12067,10540,100,100,95,19,0,6920,13400,1024,0,10.7,7.03,2.23,22.58,6.64,0.48,35.81,6.65,3.31,3.33,5.33,81.8,25.6,120.89,30056,32131,32324,41,28580,34739,0,
18/08/2020,18:47:28,ERR,ErrD,1,12067,12067,10562,100,77,95,19,0,8317,14603,1187,0,10.55,6.99,2.82,22.54,6.66,0.82,35.93,6.65,3.31,3.33,5.33,84.43,25.62,121.79,33322,31289,33618,41,27428,34067,0,
18/08/2020,18:47:28,ERR,ErrD,1,12067,12067,10584,100,77,97,19,0,5203,14603,1351,0,10.48,7.02,2.82,22.59,6.64,0.82,35.93,6.65,3.31,3.33,5.33,79.65,25.68,122.07,32002,29310,32493,41,25055,29729,0,
18/08/2020,18:47:28,ERR,ErrD,1,12067,12067,10606,100,100,97,20,0,6920,13400,1524,0,10.56,7.04,2.82,22.65,6.68,0.82,35.93,6.65,3.31,3.33,5.33,83.63,25.7,122.32,34652,31896,32569,41,25830,30260,0,
18/08/2020,18:47:29,ERR,ErrD,1,12067,12067,10628,100,100,98,20,0,6626,13400,1680,0,10.79,7.03,2.89,22.6,6.66,1.17,36.09,6.65,3.31,3.33,5.33,81.32,25.68,121.93,30772,34977,32438,41,23633,30466,0,
18/08/2020,18:47:29,ERR,ErrD,1,12067,12067,10650,100,100,99,20,0,5202,13400,1778,0,10.61,7.03,2.89,22.68,6.65,1.17,36.09,6.65,3.31,3.33,5.33,80.96,25.72,122.97,33767,33564,31977,41,25824,33912,0,
18/08/2020,18:47:29,ERR,ErrD,1,12067,12067,10671,100,100,98,20,0,8313,23756,1614,0,11.06,7.06,2.29,22.69,6.72,0.24,36.12,6.65,3.31,3.33,5.33,80.3,25.76,123.17,34212,32739,32767,41,30762,35117,1,
18/08/2020,18:47:29,ERR,ErrD,1,12044,12074,10693,100,100,97,20,0,6906,23756,1442,0,10.6,7.01,2.29,22.68,6.66,0.24,36.12,6.65,3.31,3.33,5.32,81.25,25.79,123.45,33096,34041,33780,41,30541,32371,0,
18/08/2020,18:47:29,ERR,ErrD,1,12044,12074,10715,100,100,97,20,0,8326,13400,1293,0,10.52,7.01,2.29,22.66,6.66,0.24,36.12,13.76,6.91,6.86,5.33,82.81,25.85,123.73,32414,33067,32767,41,28664,33868,1,
18/08/2020,18:47:30,ERR,ErrD,1,12044,12074,10737,100,95,93,32,0,4913,13873,1122,0,10.58,7.02,2.53,22.72,6.66,0.06,36.13,13.76,6.91,6.86,5.33,82.05,25.88,123.98,31074,30319,34064,41,25853,31676,0,
18/08/2020,18:47:30,ERR,ErrD,1,12044,12074,10759,100,61,94,32,0,6940,15225,960,0,10.96,7.05,2.53,22.74,6.68,0.06,36.13,13.76,6.91,6.86,5.33,82.78,25.9,124.24,37363,33198,32767,41,30521,32975,0,
18/08/2020,18:47:30,ERR,ErrD,1,12044,12074,10781,100,0,93,32,0,5204,21681,787,0,10.46,7.03,2.26,22.77,6.66,0.13,36.15,6.65,3.31,3.34,5.33,82.13,25.89,124.42,31838,33139,32567,41,30373,32848,1,
18/08/2020,18:47:30,ERR,ErrD,1,12044,12074,10803,100,100,93,32,0,6919,13400,622,0,10.72,7.04,2.26,22.86,6.67,0.13,36.15,6.65,3.31,3.34,5.33,82.02,26.04,124.71,33280,33938,33105,41,28393,33719,0,
18/08/2020,18:47:30,ERR,ErrD,1,12044,12074,10825,100,31,97,19,0,6904,16421,467,0,10.56,7.02,2.26,22.78,6.68,0.13,36.15,6.65,3.31,3.34,5.33,82.67,26,124.69,33097,33830,32369,41,28046,31268,0,
18/08/2020,18:47:31,ERR,ErrD,1,12044,12074,10846,100,22,96,19,0,6904,16788,302,0,10.64,7.02,2.25,22.83,6.66,0.35,36.2,6.65,3.31,3.34,5.33,81.59,26.02,125.17,31238,31988,32033,41,25051,33574,0,
18/08/2020,18:47:31,ERR,ErrD,1,12044,12074,10868,100,0,97,19,0,6899,18893,205,0,10.73,7.02,2.25,22.86,6.7,0.35,36.2,6.65,3.31,3.33,5.33,83.16,26.08,124.8,35462,32717,32846,41,26438,31356,0,
18/08/2020,18:47:31,ERR,ErrD,1,12044,12074,10890,100,0,97,19,0,6915,18893,369,0,10.78,7,2.85,22.89,6.71,1.38,36.39,6.65,3.31,3.33,5.33,83.09,26.06,125.7,32720,32783,33746,41,26379,31568,0,
18/08/2020,18:47:31,ERR,ErrD,1,12014,12014,10912,100,100,98,19,0,6922,13400,524,0,10.68,7.02,2.85,22.85,6.64,1.38,36.39,6.65,3.31,3.33,5.33,81.41,26.15,125.93,33586,33345,32767,41,28971,33109,0,
18/08/2020,18:47:31,ERR,ErrD,1,12014,12014,10934,100,15,98,19,0,6915,17066,696,0,10.62,7.05,2.85,22.87,6.69,1.38,36.39,6.65,3.31,3.33,5.33,82.55,26.17,126.19,31910,33329,33258,41,29597,36345,0,
18/08/2020,18:47:32,ERR,ErrD,1,12014,12014,10956,100,15,99,19,0,5204,17066,860,0,10.26,6.98,2.86,22.97,6.65,1.18,36.56,6.65,3.31,3.33,5.33,86.52,26.26,126.34,30095,33066,33388,41,25839,32530,1,
18/08/2020,18:47:32,ERR,ErrD,1,12014,12014,10978,100,15,99,19,0,5204,17066,1024,0,10.55,7.01,2.86,22.89,6.64,1.18,36.56,6.65,3.31,3.33,5.33,83.39,26.25,126.61,33524,32389,33399,41,23599,30661,0,
18/08/2020,18:47:32,ERR,ErrD,1,12014,12014,11000,100,100,99,19,0,8622,13400,1179,0,10.16,7.01,2.36,22.91,6.62,0.1,36.57,6.65,3.31,3.33,5.33,82.04,26.3,126.58,33485,31873,32335,41,25287,32427,0,
18/08/2020,18:47:32,ERR,ErrD,1,12014,12014,11022,100,0,98,27,0,6918,18032,1351,0,10.54,7.03,2.36,22.93,6.68,0.1,36.57,6.65,3.31,3.34,5.33,83.64,26.32,126.94,32317,32863,32826,41,27239,31746,0,
18/08/2020,18:47:32,ERR,ErrD,1,12014,12014,11044,100,0,98,27,0,6918,18032,1515,0,10.68,7.04,2.36,22.96,6.68,0.1,36.57,6.65,3.31,3.34,5.33,80.75,26.35,127.22,34426,33592,32256,41,28924,31616,1,
18/08/2020,18:47:33,ERR,ErrD,1,12014,12014,11066,100,0,97,27,0,5201,18032,1680,0,10.84,7.03,3.31,22.91,6.66,0.59,36.65,6.65,3.31,3.34,5.33,83.66,26.4,127.47,32742,33336,32767,41,26907,30222,1,
18/08/2020,18:47:33,ERR,ErrD,1,12014,12014,11088,100,0,97,27,0,6905,18032,1778,0,10.91,7.03,3.31,23.01,6.68,0.59,36.65,6.65,3.31,3.34,5.33,81.27,26.45,127.68,32343,34192,32880,41,29572,35065,1,
18/08/2020,18:47:33,ERR,ErrD,1,12014,12014,11110,100,100,98,19,0,6916,13400,1614,0,10.77,7.05,2.18,23.06,6.67,0.12,36.67,6.65,3.31,3.33,5.33,83.9,26.39,128.06,32307,32249,32526,41,25558,30930,0,
18/08/2020,18:47:33,ERR,ErrD,1,12080,12050,11132,100,100,99,19,0,6904,13400,1450,0,10.85,7.04,2.18,22.98,6.65,0.12,36.67,6.65,3.31,3.33,5.33,82.6,26.52,128.32,35142,31988,33380,41,30106,33806,0,
18/08/2020,18:47:33,ERR,ErrD,1,12080,12050,11154,100,100,99,19,0,6904,13400,1286,0,10.54,7.03,2.18,23.11,6.65,0.12,36.67,6.65,3.31,3.33,5.33,79.9,26.43,128.38,32312,34562,31774,41,25144,33530,1,
18/08/2020,18:47:34,ERR,ErrD,1,12080,12050,11176,100,52,100,19,0,4943,15607,1122,0,10.68,6.98,3.22,23.16,6.66,0.1,36.68,6.65,3.31,3.33,5.33,83.59,26.52,128.76,32530,32845,32729,41,27488,31647,0,
18/08/2020,18:47:34,ERR,ErrD,1,12080,12050,11198,100,19,100,19,0,4943,16904,960,0,10.73,7.04,3.22,23.09,6.65,0.1,36.68,6.65,3.31,3.33,5.33,83.72,26.61,128.95,29524,33962,33338,41,28701,33826,1,
18/08/2020,18:47:34,ERR,ErrD,1,12080,12050,11220,100,100,99,18,0,6410,13400,795,0,10.62,7.07,2.71,23.09,6.65,0.29,36.72,6.65,3.31,3.33,5.33,84.58,26.66,129.14,33538,33686,32870,41,24238,34178,0,
18/08/2020,18:47:34,ERR,ErrD,1,12080,12050,11242,100,100,98,19,0,5205,13582,631,0,10.49,7.03,2.71,23.15,6.69,0.29,36.72,6.65,3.31,3.33,5.33,83.4,26.71,129.49,31637,35175,32993,41,30009,31317,0,
18/08/2020,18:47:34,ERR,ErrD,1,12080,12050,11265,100,64,96,28,0,8316,15117,459,0,10.83,7.03,2.71,23.12,6.65,0.29,36.72,6.64,3.31,3.32,5.33,84.49,26.62,129.88,31532,30572,33085,41,25844,32383,0,
18/08/2020,18:47:35,ERR,ErrD,1,12080,12050,11287,100,64,95,28,0,6905,15117,302,0,10.64,7,2.24,23.19,6.69,0.85,36.84,6.64,3.31,3.32,5.32,82.56,26.65,129.9,32578,30489,33251,41,31559,33044,0,
18/08/2020,18:47:35,ERR,ErrD,1,12080,12050,11309,100,100,95,28,0,6902,13400,196,0,10.59,7.05,2.24,23.27,6.66,0.85,36.84,6.64,3.31,3.32,5.33,89.1,26.8,129.52,31089,34411,33169,41,26137,33000,1,
18/08/2020,18:47:35,ERR,ErrD,1,12080,12050,11331,100,3,96,28,0,6901,17568,360,0,10.62,7.04,2.22,23.2,6.69,0.19,36.87,6.65,3.31,3.33,5.33,85.78,26.75,130.33,31771,32725,32403,41,26074,32200,0,
18/08/2020,18:47:35,ERR,ErrD,1,12044,12163,11353,100,3,97,23,0,6901,17568,533,0,10.96,7.03,2.22,23.35,6.69,0.19,36.87,6.65,3.31,3.33,5.33,86.33,26.84,130.53,34307,32002,32885,41,29565,33473,1,
18/08/2020,18:47:35,ERR,ErrD,1,12044,12163,11375,100,3,97,23,0,6901,17568,696,0,10.79,7,2.22,23.19,6.67,0.19,36.87,6.65,3.31,3.33,5.33,86.87,26.84,130.73,32424,32874,32144,41,29596,33194,1,
18/08/2020,18:47:36,ERR,ErrD,1,12044,12163,11397,100,0,98,20,0,6922,17707,852,0,10.65,7.04,2.43,23.32,6.69,0.14,36.89,6.65,3.31,3.33,5.33,81.36,26.91,130.36,34195,32466,32822,41,29655,35467,0,
18/08/2020,18:47:36,ERR,ErrD,1,12044,12163,11419,100,100,97,19,0,8332,13400,1024,0,10.62,7.01,2.43,23.33,6.67,0.14,36.89,6.65,3.31,3.33,5.33,83.25,26.95,131.15,32017,32769,33030,41,23442,33795,0,
18/08/2020,18:47:36,ERR,ErrD,1,12044,12163,11441,100,100,98,19,0,5209,13400,1187,0,10.65,7.04,2.69,23.28,6.68,0.9,37.01,6.65,3.31,3.33,5.33,84.29,27.03,131.35,33776,35079,32767,41,31061,34608,1,
18/08/2020,18:47:36,ERR,ErrD,1,12044,12163,11463,100,100,97,27,0,5206,13400,1351,0,10.92,7.04,2.69,23.11,6.66,0.9,37.01,6.65,3.31,3.33,5.33,85.34,26.97,131.61,35671,33470,33647,41,26211,32835,0,
18/08/2020,18:47:36,ERR,ErrD,1,12044,12163,11485,100,94,98,27,0,4897,13899,1508,0,10.54,7.06,2.69,23.38,6.68,0.9,37.01,8.13,6.91,1.23,5.33,81.81,27.03,131.8,31187,33526,34093,41,27026,32600,1,
18/08/2020,18:47:37,ERR,ErrD,1,12044,12163,11507,100,100,98,31,0,8320,13400,1680,0,10.66,7.04,2.22,23.33,6.7,0.18,37.04,8.13,6.91,1.23,5.33,79.74,27.07,132.2,32533,33865,32382,41,29718,33428,0,
18/08/2020,18:47:37,ERR,ErrD,1,12044,12163,11529,100,100,97,31,0,6920,13400,1778,0,10.65,7.04,2.22,23.34,6.66,0.18,37.04,8.13,6.91,1.23,5.33,83.75,27.1,132.24,33824,31765,31638,41,26883,30774,1,
18/08/2020,18:47:37,ERR,ErrD,1,12044,12163,11551,100,26,98,31,0,6902,16615,1614,0,10.63,7.04,2.43,23.35,6.68,0.09,37.05,8.13,6.91,1.23,5.33,86.44,27.16,132.46,33087,33936,33605,41,27320,34186,1,
18/08/2020,18:47:37,ERR,ErrD,1,12041,12071,11573,100,13,97,31,0,6902,17169,1442,0,10.65,7.07,2.43,23.38,6.66,0.09,37.05,8.13,6.91,1.23,5.33,84.06,27.19,132.67,32666,31871,31992,41,23314,34315,1,
18/08/2020,18:47:37,ERR,ErrD,1,12041,12071,11595,100,13,98,19,0,6902,17169,1286,0,10.69,7.07,2.43,23.41,6.66,0.09,37.05,8.13,6.91,1.23,5.33,82.66,27.3,132.83,32649,31367,32906,41,27288,32392,0,
18/08/2020,18:47:38,ERR,ErrD,1,12041,12071,11618,100,100,98,19,0,6923,13400,1113,0,10.81,7.05,2.3,23.38,6.67,0.78,37.16,8.13,6.91,1.23,5.33,88.99,27.26,133.04,28190,33520,33201,41,26047,35957,0,
18/08/2020,18:47:38,ERR,ErrD,1,12041,12071,11640,100,100,98,19,0,6901,13400,950,0,10.82,7.03,2.3,23.38,6.65,0.78,37.16,6.65,3.31,3.33,5.33,83.67,27.34,133.39,33451,33377,32951,41,22622,32966,0,
18/08/2020,18:47:38,ERR,ErrD,1,12041,12071,11662,100,96,99,19,0,7935,13844,787,0,11,7.03,2.37,23.39,6.69,0.23,37.19,6.65,3.31,3.33,5.33,85.15,27.38,133.51,33459,33621,33679,41,22480,34000,0,
18/08/2020,18:47:38,ERR,ErrD,1,12041,12071,11684,100,74,99,19,0,6940,14717,631,0,10.68,7.02,2.37,23.46,6.66,0.23,37.19,6.65,3.31,3.33,5.33,83.23,27.39,133.77,33979,33978,32051,41,27506,33087,0,
18/08/2020,18:47:38,ERR,ErrD,1,12041,12071,11706,100,100,98,19,0,8334,13400,459,0,10.79,7.07,2.37,23.61,6.68,0.23,37.19,6.65,3.31,3.33,5.33,83.47,27.44,133.05,31935,34432,32228,41,23532,32639,1,
18/08/2020,18:47:39,ERR,ErrD,1,12041,12071,11728,100,100,98,19,0,7924,13400,295,0,10.66,7.03,3.4,23.53,6.66,1.44,37.39,6.65,3.31,3.33,5.33,84.55,27.52,134.13,34030,33493,33425,41,25132,34189,0,
18/08/2020,18:47:39,ERR,ErrD,1,12041,12071,11750,100,71,98,19,0,6906,14818,205,0,10.8,7.03,3.4,23.52,6.66,1.44,37.39,6.65,3.31,3.33,5.32,85.89,27.52,134.35,35554,34473,33227,41,27102,31805,1,
18/08/2020,18:47:39,ERR,ErrD,1,12041,12071,11772,100,49,97,19,0,6906,15707,369,0,10.73,7.06,2.72,23.61,6.72,0.17,37.42,6.65,3.31,3.33,5.33,83.49,27.57,134.49,29985,34918,33788,41,24117,34104,0,
18/08/2020,18:47:39,ERR,ErrD,1,12120,12061,11794,100,49,98,22,0,5203,15707,533,0,10.79,7.02,2.72,23.58,6.67,0.17,37.42,6.65,3.31,3.34,5.33,83.54,27.57,134.69,32956,33491,33757,41,26158,33571,1,
18/08/2020,18:47:39,ERR,ErrD,1,12120,12061,11816,100,100,98,22,0,6905,13400,696,0,10.67,7.01,2.72,23.6,6.68,0.17,37.42,6.65,3.31,3.34,5.33,81.42,27.64,134.88,33384,32414,32767,41,30834,31663,0,
18/08/2020,18:47:40,ERR,ErrD,1,12120,12061,11838,100,0,98,22,0,6905,18844,869,0,10.72,7.05,2.1,23.52,6.67,0.9,37.54,6.65,3.31,3.34,5.33,85.87,27.59,135.16,32207,32016,32757,41,26043,32096,1,
18/08/2020,18:47:40,ERR,ErrD,1,12120,12061,11860,100,0,98,28,0,6904,18844,1032,0,10.82,7.07,2.1,23.52,6.68,0.9,37.54,6.65,3.31,3.34,5.33,80.31,27.7,135.24,31765,32511,33936,41,22169,34257,0,
18/08/2020,18:47:40,ERR,ErrD,1,12120,12061,11882,100,0,92,28,0,6921,18844,1187,0,10.92,7.04,2.36,23.58,6.7,1.08,37.69,6.65,3.31,3.33,5.33,83.69,27.7,135.38,31784,32176,32789,41,25026,33777,0,
18/08/2020,18:47:40,ERR,ErrD,1,12120,12061,11904,100,100,86,28,0,8334,13400,1344,0,10.36,6.99,2.36,23.63,6.63,1.08,37.69,6.65,3.31,3.33,5.33,83.49,27.8,135.6,33101,32637,31914,41,27591,33041,1,
18/08/2020,18:47:40,ERR,ErrD,1,12120,12061,11926,100,100,81,28,0,5205,13400,1515,0,10.47,7.04,2.36,23.65,6.66,1.08,37.69,6.65,3.31,3.33,5.33,81.59,27.8,135.77,30274,34161,33969,41,24274,33672,0,
18/08/2020,18:47:41,ERR,ErrD,1,12120,12061,11948,100,26,80,28,0,6908,16633,1680,0,10.28,7.02,2.41,23.8,6.63,0.18,37.72,6.65,3.31,3.33,5.33,83.31,27.82,135.73,31477,28803,32978,41,23307,35851,0,
18/08/2020,18:47:41,ERR,ErrD,1,12120,12061,11969,100,0,83,28,0,6903,18661,1778,0,10.81,6.99,2.41,23.65,6.67,0.18,37.72,6.65,3.31,3.33,5.33,86.5,27.86,136.03,32060,31921,32624,41,28070,34944,0,
18/08/2020,18:47:41,ERR,ErrD,1,12120,12061,11991,100,0,88,28,0,6620,19608,1614,0,10.4,7,3.17,23.79,6.63,0.79,37.83,6.65,3.31,3.33,5.33,87.32,27.9,136.28,32825,32115,32441,41,25991,33447,1,
18/08/2020,18:47:41,ERR,ErrD,1,12074,12044,12013,100,100,95,28,0,8311,13400,1450,0,10.71,7.04,3.17,23.7,6.67,0.79,37.83,6.65,3.31,3.33,5.33,82.8,27.93,136.46,34521,32379,32767,41,28484,33285,1,
18/08/2020,18:47:41,ERR,ErrD,1,12074,12044,12035,100,100,99,28,0,5201,13400,1286,0,10.52,7.01,3.17,23.71,6.62,0.79,37.83,6.63,3.31,3.31,5.33,83.83,27.92,136.05,32960,34435,32188,41,25893,33045,0,
18/08/2020,18:47:42,ERR,ErrD,1,12074,12044,12057,100,0,99,28,0,5201,21040,1113,0,10.65,7.04,2.24,23.72,6.65,0.52,37.9,6.63,3.31,3.31,5.33,87.44,27.96,136.83,29451,32682,33222,41,26608,32181,0,
18/08/2020,18:47:42,ERR,ErrD,1,12074,12044,12079,100,0,99,19,0,5201,21040,960,0,10.71,7.05,2.24,23.81,6.68,0.52,37.9,6.63,3.31,3.31,5.33,83.11,28.06,137.01,31181,31689,32787,41,27011,33746,0,
18/08/2020,18:47:42,ERR,ErrD,1,12074,12044,12101,100,100,99,19,0,6923,13400,795,0,10.49,7.05,2.9,23.81,6.69,0.23,37.93,6.65,3.31,3.33,5.33,84.43,28.09,137.15,32776,31862,33569,41,23079,32514,0,
18/08/2020,18:47:42,ERR,ErrD,1,12074,12044,12123,100,0,98,19,0,6923,19583,622,0,10.52,7.06,2.9,23.78,6.69,0.23,37.93,6.65,3.31,3.33,5.33,85.63,28.02,137.3,33977,32739,31904,41,26827,35530,0,
18/08/2020,18:47:42,ERR,ErrD,1,12074,12044,12145,100,0,99,19,0,6901,19583,459,0,10.4,7.04,2.9,23.78,6.64,0.23,37.93,6.65,3.31,3.33,5.33,87.13,28.1,137.44,32000,33758,32327,41,27186,30868,1,
18/08/2020,18:47:43,ERR,ErrD,1,12074,12044,12167,100,0,98,19,0,4911,19583,302,0,10.2,7.01,3.48,23.87,6.68,0.17,37.96,6.65,3.31,3.33,5.33,85.09,28.19,137.55,32603,33488,31974,41,27325,33821,1,
18/08/2020,18:47:43,ERR,ErrD,1,12074,12044,12189,100,0,97,26,0,6906,19583,196,0,10.78,7.06,3.48,23.84,6.68,0.17,37.96,6.65,3.31,3.33,5.33,82.92,28.28,137.76,32952,30277,32594,41,26270,31256,0,
18/08/2020,18:47:43,ERR,ErrD,1,12074,12044,12211,100,100,97,26,0,6913,13400,369,0,10.77,7.03,3.04,23.74,6.66,1.02,38.1,6.65,3.31,3.33,5.33,84.99,28.33,137.92,34475,32792,32767,41,29095,31835,0,
18/08/2020,18:47:43,ERR,ErrD,1,12037,12037,12233,100,100,97,26,0,6904,13400,533,0,10.39,7.02,3.04,23.84,6.66,1.02,38.1,6.65,3.31,3.33,5.33,85.2,28.27,137.53,32247,31197,32226,41,25692,32418,0,
18/08/2020,18:47:43,ERR,ErrD,1,12037,12037,12255,100,100,97,26,0,5205,13400,696,0,10.53,7.05,3.04,23.89,6.65,1.02,38.1,6.65,3.31,3.33,5.33,85.93,28.3,138.09,30605,33331,33063,41,26809,30101,0,
18/08/2020,18:47:44,ERR,ErrD,1,12037,12037,12277,100,0,98,26,0,5205,18441,860,0,10.71,7.03,2.43,23.84,6.69,0.16,38.12,6.65,3.31,3.33,5.33,84.91,28.4,138.52,35922,32670,32767,41,28435,34135,1,
18/08/2020,18:47:44,ERR,ErrD,1,12037,12037,12299,100,0,100,19,0,5205,18441,1024,0,11.12,7.04,2.43,23.87,6.72,0.16,38.12,6.65,3.31,3.33,5.33,88.22,28.32,137.83,32226,33280,32550,41,24813,32157,1,
18/08/2020,18:47:44,ERR,ErrD,1,12037,12037,12321,100,77,100,19,0,6903,14604,1187,0,10.59,7.05,2.9,24.01,6.67,0.38,38.18,6.65,3.31,3.33,5.33,83.53,28.36,137.5,33130,32938,32545,41,28457,33124,0,
18/08/2020,18:47:44,ERR,ErrD,1,12037,12037,12344,100,77,99,19,0,6921,14604,1360,0,10.74,7.04,2.9,23.99,6.65,0.38,38.18,8.13,6.91,1.23,5.33,82.14,28.52,138.73,33219,32204,32767,41,25466,34284,1,
18/08/2020,18:47:44,ERR,ErrD,1,12037,12037,12366,100,77,99,19,0,6920,14604,1515,0,10.85,7.05,2.9,23.98,6.65,0.38,38.18,8.13,6.91,1.23,5.33,85.06,28.49,138.82,32919,31755,32674,41,24996,31883,0,
18/08/2020,18:47:45,ERR,ErrD,1,12037,12037,12388,100,70,99,19,0,7666,14864,1680,0,10.42,7.02,2.5,24.02,6.64,0.79,38.29,8.13,6.91,1.23,5.33,84.06,28.54,139.03,33732,32067,32902,41,24866,34192,0,
18/08/2020,18:47:45,ERR,ErrD,1,12037,12037,12410,100,100,98,19,0,8336,13400,1769,0,10.8,7.04,2.5,24.07,6.67,0.79,38.29,8.13,6.91,1.23,5.33,88.29,28.44,138.52,33688,32315,33171,41,24505,34359,0,
18/08/2020,18:47:45,ERR,ErrD,1,12037,12037,12432,100,100,99,19,0,6907,13400,1605,0,10.73,7.04,2.58,24,6.67,0.1,38.3,6.64,3.3,3.34,5.33,85.59,28.59,139.04,31955,32592,32767,41,25937,31152,0,
18/08/2020,18:47:45,ERR,ErrD,1,12048,12048,12454,100,100,98,19,0,6907,13400,1442,0,11.01,7.04,2.58,24.05,6.66,0.1,38.3,6.64,3.3,3.34,5.33,86.23,28.66,139.41,30745,33315,32019,41,24857,30840,1,
18/08/2020,18:47:45,ERR,ErrD,1,12048,12048,12476,100,75,98,19,0,6904,14667,1286,0,10.35,7.01,2.58,24.05,6.66,0.1,38.3,6.64,3.3,3.34,5.33,84.6,28.61,138.87,34880,33050,32767,41,23226,32824,0,
18/08/2020,18:47:46,ERR,ErrD,1,12048,12048,12498,100,0,98,19,0,6904,18705,1113,0,10.33,7.02,3.19,24.06,6.7,0.49,38.37,6.65,3.31,3.34,5.33,84.72,28.68,139.65,31252,32864,32551,41,25982,32903,1,
18/08/2020,18:47:46,ERR,ErrD,1,12048,12048,12520,100,100,98,19,0,6902,13400,950,0,10.52,7.04,3.19,24.08,6.68,0.49,38.37,6.65,3.31,3.34,5.33,85.12,28.82,139.88,34559,34333,34104,41,27446,31215,1,
18/08/2020,18:47:46,ERR,ErrD,1,12048,12048,12542,100,33,99,19,0,6900,16367,787,0,10.82,7.04,2.23,24.11,6.67,0.19,38.4,6.65,3.31,3.34,5.33,85.28,28.73,139.98,32941,33709,32347,41,26866,33422,0,
18/08/2020,18:47:46,ERR,ErrD,1,12048,12048,12564,100,12,99,19,0,6900,17205,622,0,10.67,7.03,2.23,24.08,6.67,0.19,38.4,6.65,3.31,3.34,5.33,85.76,28.8,140.13,31831,31856,34122,41,24715,31575,0,
18/08/2020,18:47:46,ERR,ErrD,1,12048,12048,12586,100,12,100,19,0,6900,17205,459,0,10.82,7.04,2.23,24.11,6.68,0.19,38.4,6.65,3.31,3.33,5.33,83.65,28.75,140.33,32951,34214,31995,41,23192,31728,1,
18/08/2020,18:47:47,ERR,ErrD,1,12048,12048,12608,100,100,100,19,0,6922,13400,295,0,10.86,7.04,2.73,24.08,6.68,0.21,38.43,6.65,3.31,3.33,5.33,81.69,28.95,140.37,31539,32393,33422,41,23568,32327,1,
18/08/2020,18:47:47,ERR,ErrD,1,12048,12048,12630,100,0,99,19,0,6920,18785,213,0,10.55,7.04,2.73,24.13,6.7,0.21,38.43,6.65,3.31,3.33,5.33,88.38,28.84,140.47,32920,32306,33732,41,25651,34384,1,
18/08/2020,18:47:47,ERR,ErrD,1,12048,12048,12652,100,0,99,19,0,4929,18785,369,0,11.04,7.06,3.11,24.21,6.69,0.21,38.45,6.65,3.31,3.34,5.33,83.18,28.94,140.58,32738,30696,33199,41,28023,32739,1,
18/08/2020,18:47:47,ERR,ErrD,1,12044,12073,12674,100,0,99,21,0,4929,18785,533,0,10.6,7.02,3.11,24.2,6.64,0.21,38.45,6.65,3.31,3.34,5.33,87.52,28.94,140.72,33534,31642,33585,41,24546,33708,0,
18/08/2020,18:47:47,ERR,ErrD,1,12044,12073,12696,100,0,98,21,0,4929,18785,705,0,11.04,7.05,3.11,24.21,6.67,0.21,38.45,6.65,3.31,3.34,5.33,86.78,28.98,140.88,34287,34901,32520,41,25901,33797,0,
18/08/2020,18:47:48,ERR,ErrD,1,12044,12073,12718,100,100,99,21,0,7924,13400,869,0,10.76,7.04,4.06,24.22,6.7,0.65,38.55,6.65,3.31,3.34,5.32,88.98,29.06,140.95,31265,33272,33039,41,27266,33974,1,
18/08/2020,18:47:48,ERR,ErrD,1,12044,12073,12740,100,100,98,21,0,6910,13400,1032,0,10.69,7.04,4.06,24.28,6.66,0.65,38.55,6.65,3.31,3.34,5.33,85.69,29.14,141.06,32726,32048,33698,41,26096,33078,1,
18/08/2020,18:47:48,ERR,ErrD,1,12044,12073,12763,100,0,98,19,0,6905,18333,1195,0,10.58,7.03,2.31,24.33,6.67,0.36,38.59,6.65,3.31,3.34,5.33,87.25,29.16,141.18,32638,32419,33090,41,22932,31671,1,
18/08/2020,18:47:48,ERR,ErrD,1,12044,12073,12785,100,0,99,19,0,6905,18333,1360,0,10.54,7.04,2.31,24.27,6.65,0.36,38.59,6.65,3.31,3.34,5.33,86.86,29.22,141.33,34596,28957,32158,41,27939,31905,0,
18/08/2020,18:47:48,ERR,ErrD,1,12044,12073,12807,100,100,99,19,0,7990,13400,1524,0,10.66,7.05,2.31,24.18,6.67,0.36,38.59,6.63,3.3,3.32,5.33,84.82,29.07,140.83,32900,33298,32336,41,25572,34975,1,
18/08/2020,18:47:49,ERR,ErrD,1,12044,12073,12829,100,27,99,19,0,6924,16608,1688,0,10.72,7.04,2.91,24.28,6.67,0.82,38.71,6.63,3.3,3.32,5.33,85.9,29.33,141.52,32132,32559,32920,41,25887,31400,0,
18/08/2020,18:47:49,ERR,ErrD,1,12044,12073,12848,100,53,97,19,0,6907,15545,1778,0,10.83,7,2.91,24.29,6.68,0.82,38.71,6.63,3.3,3.32,5.32,85.08,29.26,141.64,33130,30675,31370,41,24589,33272,1,
18/08/2020,18:47:49,ERR,ErrD,1,12044,12073,12870,100,5,96,26,0,6907,17485,1605,0,10.54,7.05,2.27,24.32,6.66,0.15,38.73,6.63,3.3,3.32,5.33,87.62,29.34,141.79,33738,32286,32015,41,24442,28631,0,
18/08/2020,18:47:49,ERR,ErrD,1,12040,12041,12892,100,5,95,26,0,5204,17485,1442,0,10.54,7.04,2.27,24.33,6.67,0.15,38.73,6.65,3.31,3.33,5.33,84.81,29.37,141.86,32715,31825,34247,41,25808,31205,1,
18/08/2020,18:47:49,ERR,ErrD,1,12040,12041,12914,100,100,95,26,0,6902,13400,1277,0,10.88,7.03,2.27,24.28,6.68,0.15,38.73,6.65,3.31,3.33,5.33,83.06,29.65,141.95,36682,34824,32361,41,33676,33888,1,
18/08/2020,18:47:50,ERR,ErrD,1,12040,12041,12935,100,0,96,26,0,6902,18819,1113,0,10.53,7.05,2.87,24.38,6.72,0.93,38.86,6.65,3.31,3.33,5.33,87.93,29.41,142.05,33296,33161,32767,41,28189,30392,0,
18/08/2020,18:47:50,ERR,ErrD,1,12040,12041,12957,100,0,98,20,0,6902,18819,950,0,10.54,7.05,2.87,24.4,6.69,0.93,38.86,6.65,3.31,3.34,5.33,86.81,29.45,142.21,30462,33979,31865,41,24756,31844,0,
18/08/2020,18:47:50,ERR,ErrD,1,12040,12041,12979,100,0,98,19,0,5226,18819,787,0,10.76,7.05,3.13,24.48,6.69,0.16,38.88,6.65,3.31,3.34,5.33,87.04,29.68,142.37,32211,32522,32260,41,27879,31909,1,
18/08/2020,18:47:50,ERR,ErrD,1,12040,12041,13001,100,100,99,19,0,8622,13400,622,0,10.42,7.02,3.13,24.46,6.7,0.16,38.88,6.65,3.31,3.34,5.33,85.98,29.79,142.52,32815,31743,31939,41,25206,34228,0,
18/08/2020,18:47:50,ERR,ErrD,1,12040,12041,13023,100,0,99,19,0,8321,18216,451,0,10.33,7.01,3.13,24.46,6.69,0.16,38.88,6.65,3.31,3.34,5.32,85.66,29.75,142.64,31706,34726,31979,41,27117,35162,0,
18/08/2020,18:47:51,ERR,ErrD,1,12040,12041,13045,100,0,99,19,0,5204,18216,295,0,10.65,7.05,2.45,24.47,6.66,0.42,38.94,13.76,6.91,6.86,5.33,85.26,30.12,142.73,34131,32896,32588,41,28029,32223,0,
18/08/2020,18:47:51,ERR,ErrD,1,12040,12041,13067,100,0,99,20,0,5204,18216,205,0,10.67,7.02,2.45,24.47,6.67,0.42,38.94,13.76,6.91,6.86,5.33,86.89,29.85,142.86,32892,30502,33192,41,25804,31849,1,
18/08/2020,18:47:51,ERR,ErrD,1,12040,12041,13089,100,0,99,20,0,5203,18216,369,0,10.7,7.03,2.82,24.41,6.66,1.06,39.09,13.76,6.91,6.86,5.33,89.75,29.82,142.94,32214,32342,33300,41,27145,36086,1,
18/08/2020,18:47:51,ERR,ErrD,1,12014,12014,13111,100,100,96,20,0,8325,13400,540,0,10.79,7.02,2.82,24.45,6.66,1.06,39.09,13.76,6.91,6.86,5.33,83.47,30.22,143.08,32095,33502,32588,41,25862,33295,0,
18/08/2020,18:47:51,ERR,ErrD,1,12014,12014,13133,100,100,91,20,0,6903,13400,705,0,10.76,7.05,2.82,24.42,6.7,1.06,39.09,6.65,3.31,3.34,5.33,84.75,30.07,143.19,31319,33516,32597,41,25991,31510,0,
18/08/2020,18:47:52,ERR,ErrD,1,12014,12014,13155,100,1,85,20,0,8112,17614,860,0,10.89,7.04,2.36,24.54,6.67,0.2,39.12,6.65,3.31,3.34,5.33,85.77,30.19,142.49,29435,34390,31899,41,24717,33903,1,
18/08/2020,18:47:52,ERR,ErrD,1,12014,12014,13176,100,1,80,20,0,8112,17614,1032,0,10.91,7.04,2.36,24.51,6.67,0.2,39.12,6.65,3.31,3.34,5.33,87.4,30.24,143.41,29692,33750,31709,41,27353,32529,1,
18/08/2020,18:47:52,ERR,ErrD,1,12014,12014,13198,100,0,80,20,0,6902,20395,1204,0,10.39,7.01,2.69,24.49,6.67,0.35,39.16,8.13,6.91,1.23,5.33,85.07,30.47,143.55,34688,31818,32391,41,27103,30581,0,
18/08/2020,18:47:52,ERR,ErrD,1,12014,12014,13220,100,100,84,20,0,6906,13400,1360,0,10.87,7.09,2.69,24.56,6.69,0.35,39.16,8.13,6.91,1.23,5.33,85.79,30.4,143.67,31587,32157,33079,41,25013,32184,0,
18/08/2020,18:47:52,ERR,ErrD,1,12014,12014,13242,100,100,91,21,0,6906,13400,1524,0,10.86,7.03,2.69,24.55,6.71,0.35,39.16,8.13,6.91,1.23,5.33,86.24,30.43,143.46,32684,32798,32346,41,27532,34728,0,
18/08/2020,18:47:53,ERR,ErrD,1,12014,12014,13264,100,23,95,21,0,8129,16730,1688,0,10.41,7.01,2.35,24.63,6.64,0.26,39.2,8.13,6.91,1.23,5.33,85.38,30.68,143.87,32675,31447,32334,41,27181,31552,0,
18/08/2020,18:47:53,ERR,ErrD,1,12014,12014,13286,100,0,98,21,0,8129,18114,1762,0,10.85,7.07,2.35,24.76,6.69,0.26,39.2,6.65,3.31,3.33,5.33,87,30.66,144.51,34594,33566,32556,41,28099,33446,0,
18/08/2020,18:47:53,ERR,ErrD,1,12014,12014,13308,100,100,98,21,0,6912,13400,1605,0,10.81,7.06,2.31,24.65,6.65,0.75,39.3,6.65,3.31,3.33,5.33,87.93,30.71,144.12,33102,32319,32261,41,29494,33519,0,
18/08/2020,18:47:53,ERR,ErrD,1,12050,12050,13330,100,100,99,22,0,5202,13400,1442,0,10.72,7.04,2.31,24.65,6.66,0.75,39.3,6.65,3.31,3.33,5.33,86.02,30.8,144.22,31442,35093,32698,41,23849,33135,0,
18/08/2020,18:47:53,ERR,ErrD,1,12050,12050,13351,100,0,98,22,0,5202,18598,1277,0,10.44,7.03,2.31,24.59,6.64,0.75,39.3,6.65,3.31,3.34,5.33,82.1,30.94,144.3,30707,33639,33868,41,26755,32386,0,
18/08/2020,18:47:54,ERR,ErrD,1,12050,12050,13373,100,0,97,22,0,5202,22676,1106,0,10.43,7.07,3.04,24.69,6.72,1.23,39.48,6.65,3.31,3.34,5.33,87.21,30.63,144.41,33126,30615,32483,41,27051,34822,0,
18/08/2020,18:47:54,ERR,ErrD,1,12050,12050,13395,100,0,97,22,0,5202,22676,950,0,10.59,7.04,3.04,24.74,6.69,1.23,39.48,6.65,3.31,3.34,5.33,82.64,31.28,144.54,32637,33873,32537,41,30901,33788,0,
18/08/2020,18:47:54,ERR,ErrD,1,12050,12050,13417,100,100,96,26,0,8316,13400,787,0,10.55,7.01,2.43,24.72,6.64,0.15,39.5,6.65,3.31,3.34,5.33,84.09,31.28,144.67,36987,32701,33806,41,28898,33626,1,
18/08/2020,18:47:54,ERR,ErrD,1,12050,12050,13439,100,0,96,27,0,8310,18084,615,0,10.79,7.05,2.43,24.69,6.66,0.15,39.5,6.65,3.31,3.34,5.33,87,31.26,144.79,32305,33373,33608,41,24913,32738,0,
18/08/2020,18:47:54,ERR,ErrD,1,12050,12050,13461,100,0,98,27,0,8310,18084,451,0,10.83,7.04,2.43,24.74,6.64,0.15,39.5,6.65,3.31,3.34,5.33,80.62,31.37,144.91,29010,31519,32629,41,26221,30099,0,
18/08/2020,18:47:55,ERR,ErrD,1,12050,12050,13483,100,0,98,27,0,8137,18084,286,0,10.62,7.05,2.32,24.85,6.68,1.14,39.65,6.65,3.31,3.34,5.33,90.32,31.28,145.01,33307,32534,32281,41,26005,32447,0,
18/08/2020,18:47:55,ERR,ErrD,1,12050,12050,13505,100,100,98,27,0,8341,13400,213,0,10.69,7.05,2.32,24.75,6.67,1.14,39.65,6.65,3.31,3.34,5.32,87.74,31.34,145.09,33637,32751,32897,41,28594,31206,1,
18/08/2020,18:47:55,ERR,ErrD,1,12050,12050,13527,100,100,99,20,0,8317,13400,377,0,10.31,7,3.16,24.76,6.67,0.32,39.7,6.65,3.31,3.33,5.33,86.07,31.48,145.2,37466,32475,32317,41,22755,33306,0,
18/08/2020,18:47:55,ERR,ErrD,1,12063,12033,13549,100,100,99,20,0,5203,13400,540,0,10.57,7.06,3.16,24.88,6.69,0.32,39.7,6.65,3.31,3.33,5.33,87.7,31.35,145.27,32790,33019,33184,41,25770,35965,0,
18/08/2020,18:47:55,ERR,ErrD,1,12063,12033,13572,100,38,99,20,0,8329,16146,712,0,10.45,7.02,3.16,24.92,6.68,0.32,39.7,6.65,3.31,3.33,5.33,85.91,31.51,145.33,32355,33077,32624,41,26096,32716,0,
18/08/2020,18:47:56,ERR,ErrD,1,12063,12033,13594,100,38,100,20,0,8313,16146,869,0,10.69,7.05,2.24,24.79,6.69,0.47,39.76,6.65,3.31,3.33,5.33,85.93,31.53,145.5,31061,31828,33201,41,22685,30630,0,
18/08/2020,18:47:56,ERR,ErrD,1,12063,12033,13616,100,100,99,22,0,8327,13400,1032,0,10.62,7.02,2.24,24.95,6.66,0.47,39.76,6.65,3.31,3.33,5.33,84.86,31.57,145.53,34643,32164,32767,41,30941,34993,0,
18/08/2020,18:47:56,ERR,ErrD,1,12063,12033,13638,100,22,99,22,0,8331,16804,1195,0,10.74,7.02,2.26,24.92,6.66,0.77,39.87,6.65,3.31,3.33,5.33,87.46,31.62,145.71,32366,32334,32340,41,23972,31217,0,
18/08/2020,18:47:56,ERR,ErrD,1,12063,12033,13660,100,0,97,22,0,8317,18791,1367,0,10.76,7.03,2.26,25.01,6.66,0.77,39.87,6.65,3.31,3.33,5.33,83.42,31.62,145.77,32323,32942,33317,41,24661,30884,0,
18/08/2020,18:47:56,ERR,ErrD,1,12063,12033,13682,100,0,97,22,0,6416,18791,1531,0,10.84,7.07,2.26,24.97,6.73,0.77,39.87,6.65,3.31,3.33,5.33,87.87,31.7,145.86,33151,32849,34393,41,22781,32500,0,
18/08/2020,18:47:57,ERR,ErrD,1,12063,12033,13704,100,100,97,19,0,8320,13400,1688,0,10.54,7.02,2.3,24.92,6.67,1.19,40.04,6.65,3.31,3.33,5.33,85.42,31.72,145.94,31225,33586,34188,41,28642,33267,1,
