Date,Time,ERR,ErrD,InFlight,MAIN,CLUT,TFCK,LFP,E2EQ,BFP,MCHM,16FS,SBLO,SBHI,Wav1,Wav2,RecV,BecV,BecA,BecT,BatV,BatA,BmAH,CELS,Cel1,Cel2,TeeV,AmbT,CanT,EngT,AccX,AccY,AccZ,AccTmp,GyrX,GyrY,GyrZ,VibS
2020-08-24,18:35:44.11145,ERR,ErrD,0,0,0,42,100,0,8,441,0.00,0,15443,93,0,0.00,0.00,0.00,20.90,6.62,0.25,4.87,6.62,3.30,3.32,5.32,69.01,20.55,21.15,0,0,0,0,0,0,0
2020-08-24,18:35:45.11345,ERR,ErrD,0,0,0,54,100,23,8,441,0.00,0,10324,1704,0,0.00,0.00,0.00,20.94,6.60,0.35,5.71,6.62,3.30,3.31,5.32,74.94,20.59,21.14,1028,1603,20193,37,210,65220,0
2020-08-24,18:35:45.11546,ERR,ErrD,0,0,0,67,100,0,8,441,0.00,0,15513,1753,0,0.00,0.00,0.00,20.87,6.62,0.35,5.71,6.62,3.30,3.31,5.32,76.12,20.66,21.05,29653,1321,20059,37,205,65216,0
2020-08-24,18:35:45.11747,ERR,ErrD,0,0,0,79,100,0,8,441,0.00,0,15520,1581,0,0.00,0.00,0.00,20.84,6.61,0.35,5.71,6.62,3.30,3.31,5.32,76.70,20.64,21.10,1979,1613,20213,37,182,65225,0
2020-08-24,18:35:45.11947,ERR,ErrD,0,0,0,92,100,0,8,441,0.00,0,22938,1417,0,0.00,0.00,0.00,20.82,6.62,0.26,6.36,6.62,3.30,3.31,5.32,71.95,20.60,21.03,427,1758,20217,37,145,65238,0
2020-08-24,18:35:45.12149,ERR,ErrD,0,0,0,103,100,7,8,29,0.00,3879,20302,1261,0,0.00,0.00,0.00,20.85,6.61,0.26,6.36,6.62,3.30,3.31,5.32,74.94,20.60,21.09,20816,1543,20161,37,209,65299,0
2020-08-24,18:35:46.12349,ERR,ErrD,0,0,0,118,100,1,8,29,0.00,8606,10320,1090,0,0.00,0.00,0.00,20.94,6.61,0.26,6.36,6.63,3.30,3.32,5.32,77.73,20.64,21.17,545,1704,20152,37,166,65210,0
2020-08-24,18:35:46.12549,ERR,ErrD,0,0,0,131,100,100,8,99,0.00,8626,23780,926,0,0.00,0.00,0.00,20.87,6.62,0.38,7.39,6.63,3.30,3.32,5.32,73.98,20.64,21.14,495,1462,20120,37,5297,65265,0
2020-08-24,18:35:46.12749,ERR,ErrD,0,0,0,144,100,0,8,99,0.00,8638,12101,762,0,0.00,0.00,0.00,20.86,6.61,0.38,7.39,6.63,3.30,3.32,5.32,75.52,20.62,21.12,536,1828,20169,37,134,52510,0
2020-08-24,18:35:46.12949,ERR,ErrD,0,0,0,157,100,0,8,99,0.00,10000,23102,598,0,0.00,0.00,0.00,20.80,6.60,0.27,8.16,6.63,3.30,3.32,5.32,78.38,20.54,21.12,34671,1587,20151,37,235,65296,0
2020-08-24,18:35:46.13149,ERR,ErrD,0,0,0,169,100,100,8,102,0.00,10000,13821,434,0,0.00,0.00,0.00,20.83,6.60,0.27,8.16,6.62,3.30,3.32,5.32,74.42,20.54,21.05,522,1616,20256,37,195,65291,0
2020-08-24,18:35:47.13350,ERR,ErrD,0,0,0,181,100,0,8,102,0.00,8602,10000,337,0,0.00,0.00,0.00,20.86,6.61,0.27,8.16,6.62,3.30,3.32,5.32,71.05,20.55,21.13,26074,1241,20115,37,204,55156,0
2020-08-24,18:35:47.13553,ERR,ErrD,0,0,0,195,100,0,8,102,0.00,6924,23269,172,0,0.00,0.00,0.00,20.83,6.61,0.41,9.37,6.62,3.30,3.32,5.32,73.11,20.51,21.12,23452,1194,20188,37,197,65271,0
2020-08-24,18:35:47.13763,ERR,ErrD,0,0,0,209,100,95,8,102,0.00,8605,10000,337,0,0.00,0.00,0.00,20.84,6.61,0.41,9.37,6.62,3.30,3.32,5.32,76.70,20.53,21.13,33485,988,20074,37,213,56431,0
2020-08-24,18:35:47.13976,ERR,ErrD,0,0,0,223,100,95,8,102,0.00,10000,10000,517,0,0.00,0.00,0.00,20.93,6.62,0.26,10.17,6.62,3.30,3.32,5.32,80.58,20.44,21.08,4615,1000,20209,37,1382,65236,0
2020-08-24,18:35:47.14185,ERR,ErrD,0,0,0,237,100,95,8,102,0.00,8621,10000,689,0,0.00,0.00,0.00,20.84,6.61,0.26,10.17,6.62,3.30,3.31,5.32,75.99,20.47,21.22,5838,1080,20143,37,182,57565,0
2020-08-24,18:35:48.14395,ERR,ErrD,0,0,0,251,100,95,8,102,0.00,8602,10000,860,0,0.00,0.00,0.00,20.92,6.61,0.26,10.17,6.62,3.30,3.31,5.32,72.85,20.51,21.22,22270,1191,20129,37,1404,65278,0
2020-08-24,18:35:48.14607,ERR,ErrD,0,0,0,265,100,18,8,102,0.00,8602,23302,1032,0,0.00,0.00,0.00,20.92,6.60,0.37,11.38,6.62,3.30,3.31,5.32,80.20,20.56,21.08,1430,856,20191,37,137,57493,0
2020-08-24,18:35:48.14816,ERR,ErrD,0,0,0,279,100,96,8,101,0.00,7918,10000,1204,0,0.00,0.00,0.00,20.80,6.60,0.37,11.38,6.62,3.30,3.31,5.32,72.26,20.66,21.07,43513,1555,20158,37,1374,65186,0
2020-08-24,18:35:48.15027,ERR,ErrD,0,0,0,291,100,96,8,101,0.00,8611,10000,1377,0,0.00,0.00,0.00,20.91,6.60,0.28,12.36,6.62,3.30,3.31,5.32,75.67,20.55,21.19,562,1598,20214,37,15532,65225,0
2020-08-24,18:35:49.15238,ERR,ErrD,0,0,0,307,100,96,8,101,0.00,8608,10000,1548,0,0.00,0.00,0.00,20.79,6.61,0.28,12.36,6.62,3.30,3.31,5.32,77.64,20.71,21.17,1602,1633,20133,37,5318,65323,0
2020-08-24,18:35:49.15447,ERR,ErrD,0,0,0,321,100,96,8,101,0.00,7774,10000,1720,0,0.00,0.00,0.00,20.84,6.60,0.28,12.36,6.62,3.30,3.31,5.32,179.18,20.56,21.05,17048,1470,20213,37,143,63962,0
2020-08-24,18:35:49.15657,ERR,ErrD,0,0,0,335,100,96,8,101,0.00,7011,10000,1729,0,0.00,0.00,0.00,20.96,6.61,0.29,13.41,6.62,3.30,3.31,5.32,0.00,20.59,21.04,817,1238,20167,37,237,64128,0
2020-08-24,18:35:49.15870,ERR,ErrD,0,0,0,350,100,96,8,101,0.00,10000,10000,1557,0,0.00,0.00,0.00,20.78,6.62,0.29,13.41,6.62,3.30,3.31,5.32,0.00,20.52,20.94,3230,1339,20167,37,1408,65231,0
2020-08-24,18:35:49.16078,ERR,ErrD,0,0,0,364,100,0,8,29,0.00,6038,10000,1384,0,0.00,0.00,0.00,20.99,6.61,0.37,14.80,6.62,3.30,3.32,5.32,0.00,20.39,21.03,778,1072,20231,37,153,60098,0
2020-08-24,18:35:50.16287,ERR,ErrD,0,0,0,379,100,100,8,29,0.00,6038,21563,1212,0,0.00,0.00,0.00,20.84,6.61,0.37,14.80,6.62,3.30,3.32,5.32,0.00,20.34,21.05,23820,1231,20118,37,183,65295,0
2020-08-24,18:35:50.16497,ERR,ErrD,0,0,0,394,100,0,8,18,0.00,5295,10000,1040,0,0.00,0.00,0.00,20.89,6.61,0.37,14.80,6.62,3.30,3.32,5.32,0.00,20.56,20.87,14512,1265,20135,37,140,65385,0
2020-08-24,18:35:50.16709,ERR,ErrD,0,0,0,408,100,0,8,19,0.00,10000,10000,860,0,0.00,0.00,0.00,20.86,6.59,0.25,15.75,6.62,3.30,3.32,5.32,0.00,20.61,20.97,10968,1333,20158,37,141,65238,0
2020-08-24,18:35:50.16929,ERR,ErrD,0,0,0,421,100,100,8,30,0.00,10000,21616,689,0,0.00,0.00,0.00,20.84,6.61,0.25,15.75,6.62,3.30,3.32,5.32,0.00,20.43,21.08,494,1348,20168,37,147,65257,0
2020-08-24,18:35:50.17140,ERR,ErrD,0,0,0,435,100,0,8,30,0.00,7787,10000,508,0,0.00,0.00,0.00,20.79,6.60,0.36,17.20,6.62,3.30,3.32,5.32,0.00,20.47,20.86,493,1340,20137,37,147,65298,0
2020-08-24,18:35:51.17353,ERR,ErrD,0,0,0,449,100,0,8,30,0.00,6904,10000,344,0,0.00,0.00,0.00,20.84,6.61,0.36,17.20,6.62,3.30,3.32,5.32,0.00,20.50,21.02,420,1373,20140,37,165,65269,0
2020-08-24,18:35:51.17564,ERR,ErrD,0,0,0,463,100,0,8,30,0.00,6904,10000,172,0,0.00,0.00,0.00,20.87,6.57,0.36,17.20,6.62,3.30,3.32,5.32,0.00,20.68,21.05,517,1378,20166,37,158,65225,0
2020-08-24,18:35:51.17772,ERR,ErrD,0,0,0,477,100,0,8,30,0.00,5278,10000,344,0,0.00,0.00,0.00,20.87,6.61,0.63,19.83,6.62,3.30,3.32,5.32,0.00,20.85,21.03,500,1420,20150,37,151,65290,0
2020-08-24,18:35:51.17986,ERR,ErrD,0,0,0,493,100,95,8,102,0.00,6903,10000,508,0,0.00,0.00,0.00,20.88,6.60,0.63,19.83,6.62,3.30,3.32,5.32,0.00,20.26,20.97,551,1403,20144,37,154,65281,0
2020-08-24,18:35:51.18192,ERR,ErrD,0,0,0,507,100,95,8,102,0.00,8603,10000,680,0,0.00,0.00,0.00,20.77,6.59,0.29,21.10,6.62,3.30,3.32,5.32,0.00,20.54,21.03,583,1405,20163,37,158,65278,0
2020-08-24,18:35:52.18408,ERR,ErrD,0,0,0,522,100,95,8,102,0.00,6918,10000,860,0,0.00,0.00,0.00,20.86,6.60,0.29,21.10,6.62,3.30,3.32,5.32,0.00,20.51,21.04,496,1426,20162,37,151,65286,0
2020-08-24,18:35:52.18613,ERR,ErrD,0,0,0,536,100,95,8,102,0.00,6918,10000,1024,0,0.00,0.00,0.00,20.84,6.61,0.29,21.10,6.62,3.30,3.31,5.32,0.00,20.70,20.99,576,1399,20163,37,150,65279,0
2020-08-24,18:35:52.18824,ERR,ErrD,0,0,0,550,100,95,8,102,0.00,6918,10000,1204,0,0.00,0.00,0.00,20.91,6.60,0.24,22.16,6.62,3.30,3.31,5.32,0.00,20.46,21.04,524,1415,20158,37,155,65271,0
2020-08-24,18:35:52.19033,ERR,ErrD,0,0,0,564,100,55,8,102,0.00,6918,21859,1377,0,0.00,0.00,0.00,20.93,6.59,0.24,22.16,6.62,3.30,3.31,5.32,0.00,20.42,20.91,1835,1348,20160,37,136,65296,0
2020-08-24,18:35:53.19249,ERR,ErrD,0,0,0,577,100,95,8,102,0.00,5210,10000,1541,0,0.00,0.00,0.00,20.81,6.61,0.26,23.33,6.62,3.30,3.31,5.32,0.00,20.61,20.99,8194,1366,20122,37,160,65134,0
2020-08-24,18:35:53.19453,ERR,ErrD,0,0,0,592,100,95,8,102,0.00,8626,10000,1720,0,0.00,0.00,0.00,20.85,6.60,0.26,23.33,6.62,3.30,3.31,5.32,0.00,20.91,20.95,2104,1527,20165,37,133,62797,0
2020-08-24,18:35:53.19669,ERR,ErrD,0,0,0,606,100,0,8,19,0.00,6904,10000,1729,0,0.00,0.00,0.00,20.91,6.61,0.26,23.33,6.62,3.30,3.31,5.32,0.00,20.30,20.96,441,1386,20133,37,176,65194,0
2020-08-24,18:35:53.19877,ERR,ErrD,0,0,0,620,100,94,8,103,0.00,6904,10000,1564,0,0.00,0.00,0.00,20.82,6.61,0.38,25.12,6.61,3.30,3.31,5.32,0.00,20.52,20.91,626,1512,19951,37,5362,64054,0
2020-08-24,18:35:53.20089,ERR,ErrD,0,0,0,634,100,94,8,103,0.00,6696,10000,1384,0,0.00,0.00,0.00,20.86,6.60,0.38,25.12,6.61,3.30,3.31,5.32,0.00,20.42,21.01,9323,2241,20376,37,4161,65264,0
2020-08-24,18:35:54.20300,ERR,ErrD,0,0,0,649,100,94,8,103,0.00,4951,10000,1212,0,0.00,0.00,0.00,20.94,6.61,0.36,26.89,6.61,3.30,3.31,5.32,0.00,20.39,21.03,421,1642,20172,37,148,65288,0
2020-08-24,18:35:54.20505,ERR,ErrD,0,0,0,663,100,94,8,103,0.00,4951,10000,1040,0,0.00,0.00,0.00,20.87,6.59,0.36,26.89,6.61,3.30,3.31,5.32,0.00,20.41,21.03,4082,1760,20178,37,208,65331,0
2020-08-24,18:35:54.20720,ERR,ErrD,0,0,0,677,100,94,8,103,0.00,4951,10000,886,0,0.00,0.00,0.00,20.84,6.60,0.36,26.89,6.61,3.30,3.31,5.32,0.00,20.53,21.00,755,1309,20010,37,7852,65203,0
2020-08-24,18:35:54.20927,ERR,ErrD,0,0,0,691,100,94,8,103,0.00,8620,10000,713,0,0.00,0.00,0.00,20.83,6.59,0.23,28.05,6.61,3.30,3.31,5.32,0.00,20.54,21.06,6911,1695,20102,37,10532,65232,0
2020-08-24,18:35:54.21142,ERR,ErrD,0,0,0,706,100,94,8,103,0.00,6906,10000,524,0,0.00,0.00,0.00,20.95,6.60,0.23,28.05,6.61,3.30,3.31,5.32,0.00,20.35,20.96,1514,1486,20056,37,212,65186,0
2020-08-24,18:35:55.21349,ERR,ErrD,0,0,0,720,100,96,8,101,0.00,6906,10000,360,0,0.00,0.00,0.00,20.89,6.57,0.83,32.37,6.60,3.29,3.31,5.32,0.00,20.79,20.90,380,1334,20111,37,370,21873,0
2020-08-24,18:35:55.21559,ERR,ErrD,0,0,29,734,100,96,8,101,0.00,6906,10000,180,0,0.00,0.00,0.00,21.04,6.58,0.83,32.37,6.60,3.29,3.31,5.32,0.00,20.38,20.94,4175,1633,20135,37,264,65284,0
2020-08-24,18:35:55.21772,ERR,ErrD,0,0,29,750,100,96,8,101,0.00,5207,10000,320,0,0.00,0.00,0.00,21.08,6.50,0.83,32.37,6.60,3.29,3.31,5.32,0.00,20.50,20.97,2887,3176,19860,37,633,65331,0
2020-08-24,18:35:55.21984,ERR,ErrD,0,0,29,764,100,0,8,22,0.00,5207,10000,484,0,0.00,0.00,0.00,21.41,6.51,1.11,38.27,6.60,3.29,3.31,5.32,0.00,20.52,20.98,27143,27424,18447,37,22091,65019,0
2020-08-24,18:35:55.22189,ERR,ErrD,0,0,29,778,100,0,8,22,0.00,6954,10000,664,0,0.00,0.00,0.00,21.21,6.58,1.11,38.27,6.58,3.28,3.30,5.32,0.00,20.45,21.01,20963,27012,21799,37,29470,61994,1
2020-08-24,18:35:56.22402,ERR,ErrD,0,0,29,794,100,0,8,19,0.00,5221,10000,828,0,0.00,0.00,0.00,20.99,6.57,0.50,41.03,6.58,3.28,3.30,5.32,0.00,20.61,20.95,10785,2413,20911,37,751,46925,1
2020-08-24,18:35:56.22614,ERR,ErrD,0,0,29,808,100,92,8,105,0.00,8312,10000,1008,0,0.00,0.00,0.00,20.94,6.54,0.50,41.03,6.58,3.28,3.30,5.32,0.00,20.39,21.00,4232,1595,20091,37,300,23161,0
2020-08-24,18:35:56.22820,ERR,ErrD,0,0,29,822,100,99,8,105,0.00,8312,19952,1179,0,1.34,0.00,0.00,21.28,6.51,0.50,41.03,6.58,3.28,3.30,5.32,0.00,20.52,21.02,9858,7465,19578,37,1491,7181,0
2020-08-24,18:35:56.23034,ERR,ErrD,0,0,29,837,100,92,8,105,0.00,6904,10000,1344,0,1.98,0.00,0.00,21.48,6.48,0.65,44.70,6.58,3.28,3.30,5.32,0.00,20.62,21.11,32859,27582,19058,37,22477,36637,1
2020-08-24,18:35:57.23240,ERR,ErrD,0,0,29,850,100,92,8,105,0.00,6903,10000,1524,0,1.85,0.00,0.00,21.48,6.57,0.65,44.70,6.58,3.28,3.30,5.32,0.00,20.63,20.93,21135,42140,21908,37,52750,37912,1
2020-08-24,18:35:57.23455,ERR,ErrD,0,0,29,864,100,92,8,105,0.00,6903,10000,1696,0,1.79,0.00,0.00,21.03,6.57,0.96,50.27,6.58,3.28,3.30,5.32,0.00,20.36,20.96,4534,1981,20219,37,406,48593,0
2020-08-24,18:35:57.23660,ERR,ErrD,0,0,0,878,100,14,8,105,0.00,6904,23385,1753,0,1.72,0.00,0.00,21.11,6.59,0.96,50.27,6.58,3.28,3.30,5.32,0.00,20.60,20.97,1780,1668,20079,37,139,33290,0
2020-08-24,18:35:57.23874,ERR,ErrD,0,0,0,892,100,92,8,105,0.00,6904,10000,1581,0,1.70,0.00,0.00,21.03,6.58,0.96,50.27,6.58,3.28,3.30,5.32,0.00,20.60,21.03,3006,1704,20169,37,1495,65090,0
2020-08-24,18:35:57.24079,ERR,ErrD,0,0,0,906,100,99,8,105,0.00,7958,19951,1409,0,1.68,0.00,0.00,21.06,6.54,0.55,53.54,6.58,3.28,3.30,5.32,0.00,20.77,20.98,798,1639,20159,37,6470,65200,0
2020-08-24,18:35:58.24295,ERR,ErrD,0,0,0,921,100,0,8,21,0.00,5278,10000,1244,0,2.04,0.00,0.00,22.08,6.52,0.55,53.54,6.58,3.28,3.30,5.31,0.00,20.28,20.98,36521,23347,19054,37,61999,47361,1
2020-08-24,18:35:58.24503,ERR,ErrD,0,0,0,934,100,0,8,21,0.00,5278,10000,1065,0,1.96,0.00,0.00,21.21,6.48,1.08,60.07,6.58,3.28,3.30,5.32,0.00,20.47,20.91,10018,12843,19337,37,7610,27824,1
2020-08-24,18:35:58.24716,ERR,ErrD,0,0,0,950,100,0,8,21,0.00,6940,10000,893,0,1.85,0.00,0.00,21.06,6.58,1.08,60.07,6.58,3.28,3.30,5.32,0.00,20.73,21.00,46139,2039,20014,37,22076,56068,1
2020-08-24,18:35:58.24922,ERR,ErrD,0,0,0,964,100,0,8,26,0.00,6904,10000,722,0,1.85,0.00,0.00,20.99,6.56,1.08,60.07,6.58,3.28,3.30,5.32,0.00,20.65,20.91,15915,1413,20052,37,14332,64877,0
2020-08-24,18:35:58.25136,ERR,ErrD,0,0,0,979,100,0,8,26,0.00,6904,10000,549,0,1.78,0.00,0.00,20.85,6.58,0.25,61.60,6.58,3.28,3.30,5.32,0.00,20.66,20.93,8176,1636,20124,37,61497,38509,0
2020-08-24,18:35:59.25342,ERR,ErrD,0,0,0,993,100,100,8,26,0.00,8605,21663,377,0,1.74,0.00,0.00,20.80,6.58,0.25,61.60,6.58,3.28,3.30,5.32,0.00,20.73,21.04,655,1829,20141,37,16890,65259,0
2020-08-24,18:35:59.25558,ERR,ErrD,0,0,0,1009,100,0,7,26,0.00,8335,10000,205,0,1.73,0.00,0.00,20.81,6.59,0.25,63.18,6.58,3.28,3.30,5.32,0.00,20.47,20.91,23359,1574,20143,37,11691,62712,0
2020-08-24,18:35:59.25763,ERR,ErrD,0,0,0,1023,100,0,7,26,0.00,6906,19945,304,0,1.72,0.00,0.00,20.84,6.58,0.25,63.18,6.58,3.28,3.30,5.32,0.00,20.66,20.98,621,1536,20158,37,143,65181,0
2020-08-24,18:35:59.25978,ERR,ErrD,0,0,0,1038,100,0,7,26,0.00,6904,10000,475,0,1.69,0.00,0.00,20.93,6.59,0.25,63.18,6.58,3.28,3.30,5.32,0.00,20.46,21.03,526,1544,20156,37,170,65351,0
2020-08-24,18:35:59.26185,ERR,ErrD,0,0,0,1053,100,0,7,26,0.00,5207,19948,648,0,1.66,0.00,0.00,20.88,6.59,0.39,65.68,6.58,3.28,3.30,5.32,0.00,20.57,21.00,396,1558,20169,37,158,65319,0
2020-08-24,18:36:00.26401,ERR,ErrD,0,0,0,1068,100,0,7,18,0.00,5207,10000,820,0,1.64,0.00,0.00,20.80,6.61,0.39,65.68,6.58,3.28,3.30,5.31,0.00,20.50,20.97,545,1452,20161,37,157,65249,0
2020-08-24,18:36:00.26608,ERR,ErrD,0,0,0,1082,100,0,7,18,0.00,5207,10000,999,0,1.65,0.00,0.00,20.85,6.59,0.36,68.05,6.58,3.28,3.30,5.32,0.00,20.59,20.87,556,1429,20151,37,148,65272,0
2020-08-24,18:36:00.26823,ERR,ErrD,0,0,0,1098,100,0,7,19,0.00,5210,10000,1163,0,1.63,0.00,0.00,20.80,6.60,0.36,68.05,6.58,3.28,3.30,5.32,0.00,20.65,21.01,511,1444,20139,37,156,65288,0
2020-08-24,18:36:00.27029,ERR,ErrD,0,0,0,1112,100,0,7,19,0.00,5297,10000,1344,0,1.62,0.00,0.00,20.86,6.58,0.36,68.05,6.60,3.30,3.30,5.32,0.00,20.49,21.02,560,1427,20158,37,148,65277,0
2020-08-24,18:36:01.27240,ERR,ErrD,0,0,0,1126,100,0,7,19,0.00,5297,20716,1515,0,1.61,0.00,0.00,20.82,6.58,0.25,69.75,6.60,3.30,3.30,5.32,0.00,20.78,20.94,487,1458,20144,37,150,65259,0
2020-08-24,18:36:01.27453,ERR,ErrD,0,0,0,1142,100,92,7,102,0.00,8337,10000,1680,0,1.56,0.00,0.00,20.89,6.60,0.25,69.75,6.60,3.30,3.30,5.32,0.00,20.43,20.99,556,1404,20166,37,137,65277,0
2020-08-24,18:36:01.27667,ERR,ErrD,0,0,0,1156,100,92,7,102,0.00,6922,10000,1762,0,1.52,0.00,0.00,20.78,6.59,0.23,71.38,6.60,3.30,3.30,5.32,0.00,20.48,20.95,630,1424,20148,37,145,65273,0
2020-08-24,18:36:01.27873,ERR,ErrD,0,0,0,1171,100,2,7,102,0.00,8605,23846,1589,0,1.50,0.00,0.00,20.83,6.59,0.23,71.38,6.60,3.30,3.30,5.32,0.00,20.47,21.00,459,1425,20158,37,167,65276,0
2020-08-24,18:36:01.28082,ERR,ErrD,0,0,0,1185,100,92,7,102,0.00,8106,10000,1417,0,1.48,0.00,0.00,20.84,6.59,0.23,71.38,6.60,3.30,3.30,5.32,0.00,20.50,20.94,10659,1205,20088,37,198,65157,0
2020-08-24,18:36:02.28294,ERR,ErrD,0,0,0,1199,100,45,7,102,0.00,8106,22113,1244,0,1.47,0.00,0.00,20.95,6.59,0.26,73.19,6.60,3.30,3.30,5.32,0.00,20.65,20.99,23616,898,20203,37,173,21853,0
2020-08-24,18:36:02.28508,ERR,ErrD,0,0,0,1213,100,81,7,102,0.00,8028,20699,1073,0,1.44,0.00,0.00,20.88,6.59,0.26,73.19,6.60,3.30,3.30,5.31,0.00,20.47,21.03,9594,1643,20152,37,9176,65090,1
2020-08-24,18:36:02.28725,ERR,ErrD,0,0,0,1228,100,90,7,104,0.00,5281,10000,902,0,1.41,0.00,0.00,20.95,6.59,0.31,75.46,6.60,3.30,3.30,5.32,0.00,20.44,21.10,38816,1538,20128,37,3932,63858,0
2020-08-24,18:36:02.28930,ERR,ErrD,0,0,0,1240,100,90,7,104,0.00,5281,10000,722,0,1.40,0.00,0.00,20.90,6.58,0.31,75.46,6.60,3.30,3.30,5.32,0.00,20.49,21.01,48850,1361,20162,37,111,65045,0
2020-08-24,18:36:02.29146,ERR,ErrD,0,0,0,1256,100,90,7,104,0.00,8332,10000,549,0,1.37,0.00,0.00,20.86,6.57,0.31,75.46,6.60,3.30,3.30,5.32,0.00,20.51,20.93,5339,1473,20138,37,137,65283,0
2020-08-24,18:36:03.29351,ERR,ErrD,0,0,0,1270,100,90,7,104,0.00,6921,10000,377,0,1.35,0.00,0.00,20.82,6.59,0.29,77.62,6.60,3.30,3.30,5.32,0.00,20.48,20.94,542,1480,20144,37,172,65338,0
2020-08-24,18:36:03.29561,ERR,ErrD,0,0,0,1284,100,78,7,104,0.00,6921,20713,205,0,1.33,0.00,0.00,20.82,6.60,0.29,77.62,6.60,3.30,3.30,5.32,0.00,20.34,21.08,403,1441,20154,37,135,65249,0
2020-08-24,18:36:03.29775,ERR,ErrD,0,0,0,1299,100,90,7,104,0.00,5278,10000,304,0,1.29,0.00,0.00,20.79,6.59,0.40,80.62,6.60,3.30,3.30,5.31,0.00,20.63,21.02,220,1464,20157,37,102,65162,0
2020-08-24,18:36:03.29985,ERR,ErrD,0,0,0,1313,100,89,7,105,0.00,5274,10000,475,0,1.28,0.00,0.00,20.88,6.59,0.40,80.62,6.60,3.30,3.30,5.32,0.00,20.53,20.82,710,1670,20189,37,220,65278,0
2020-08-24,18:36:03.30192,ERR,ErrD,0,0,0,1328,100,47,7,105,0.00,8607,21922,648,0,1.27,0.00,0.00,20.85,6.59,0.40,80.62,6.59,3.30,3.30,5.32,0.00,20.46,20.97,464,1481,20162,37,127,65344,0
2020-08-24,18:36:04.30404,ERR,ErrD,0,0,0,1344,100,89,7,105,0.00,6936,10000,820,0,1.26,0.00,0.00,20.74,6.59,0.26,82.61,6.59,3.30,3.30,5.32,0.00,20.58,21.04,1478,1677,20168,37,130,65283,0
2020-08-24,18:36:04.30618,ERR,ErrD,0,0,0,1359,100,89,7,105,0.00,6936,10000,992,0,1.24,0.00,0.00,20.75,6.61,0.26,82.61,6.59,3.30,3.30,5.32,0.00,20.56,21.01,892,1588,20285,37,239,35902,0
2020-08-24,18:36:04.30825,ERR,ErrD,0,0,0,1372,100,89,7,105,0.00,6936,10000,1163,0,1.28,0.00,0.00,20.96,6.50,1.94,97.82,6.59,3.30,3.30,5.32,0.00,20.45,21.04,823,1296,20459,37,343,19862,0
2020-08-24,18:36:04.31039,ERR,ErrD,0,0,0,1386,100,89,7,105,0.00,6936,10000,1344,0,1.26,0.00,0.00,21.18,6.52,1.94,97.82,6.59,3.30,3.30,5.32,0.00,20.40,21.00,23209,696,21132,37,32560,28449,0
2020-08-24,18:36:05.31244,ERR,ErrD,0,0,0,1400,100,90,7,105,0.00,9500,20209,1508,0,1.26,0.00,0.00,21.05,6.57,1.94,97.82,6.59,3.30,3.30,5.32,0.00,20.49,21.07,24536,26165,18393,37,8230,64449,1
2020-08-24,18:36:05.31460,ERR,ErrD,0,0,0,1415,100,90,7,104,0.00,5279,10000,1688,0,1.23,0.00,0.00,20.97,6.52,1.26,107.86,6.59,3.30,3.30,5.32,0.00,20.18,21.04,4480,1865,22114,37,2964,1527,1
2020-08-24,18:36:05.31664,ERR,ErrD,0,0,0,1429,100,90,7,104,0.00,5203,10000,1762,0,1.16,0.00,0.00,20.93,6.58,1.26,107.86,6.59,3.30,3.30,5.32,0.00,20.43,21.01,27036,1924,20316,37,988,49827,1
2020-08-24,18:36:05.31881,ERR,ErrD,0,0,0,1445,100,90,7,104,0.00,5206,10000,1589,0,1.14,0.00,0.00,20.74,6.59,0.39,111.06,6.59,3.30,3.30,5.32,0.00,20.46,21.07,791,1708,20305,37,342,65269,0
2020-08-24,18:36:05.32086,ERR,ErrD,0,0,0,1458,100,90,7,104,0.00,5206,10000,1417,0,1.12,0.00,0.00,20.92,6.58,0.39,111.06,6.59,3.30,3.30,5.32,0.00,20.45,20.97,392,1812,20160,37,235,64111,0
2020-08-24,18:36:06.32300,ERR,ErrD,0,0,84,1472,100,90,7,104,0.00,5206,10000,1244,0,1.10,0.00,0.00,20.91,6.58,0.39,111.06,6.59,3.30,3.30,5.32,0.00,20.48,20.94,1565,1689,20154,37,234,50040,0
2020-08-24,18:36:06.32506,ERR,ErrD,0,0,84,1486,100,48,7,104,0.00,8603,21931,1073,0,1.12,0.00,0.00,21.02,6.50,1.23,121.23,6.59,3.30,3.30,5.32,0.00,20.67,20.98,436,1556,20099,37,204,65293,0
2020-08-24,18:36:06.32721,ERR,ErrD,0,0,84,1502,100,90,7,104,0.00,8333,10000,893,0,1.91,0.00,0.00,21.35,6.42,1.23,121.23,6.59,3.30,3.30,5.32,0.00,20.22,20.93,14925,14124,19454,37,3034,22911,0
2020-08-24,18:36:06.32929,ERR,ErrD,0,0,84,1516,100,78,7,27,0.00,5205,22956,729,0,1.91,0.00,0.00,22.04,6.51,0.68,126.94,6.59,3.30,3.30,5.32,0.00,20.77,20.82,38928,43348,21868,37,56670,20131,1
2020-08-24,18:36:06.33144,ERR,ErrD,0,0,84,1532,100,0,7,27,0.00,8319,10000,557,0,1.81,0.00,0.00,21.10,6.51,0.68,126.94,6.59,3.30,3.30,5.31,0.00,20.49,21.08,40778,14614,20247,37,411,24741,1
2020-08-24,18:36:07.33350,ERR,ErrD,0,0,84,1546,100,0,7,27,0.00,6902,20206,377,0,1.79,0.00,0.00,20.99,6.53,0.68,126.94,6.59,3.30,3.30,5.32,0.00,20.77,21.06,14633,1841,20251,37,425,64858,1
2020-08-24,18:36:07.33566,ERR,ErrD,0,0,84,1561,100,0,7,20,0.00,5276,10000,213,0,1.80,0.00,0.00,21.10,6.48,1.95,143.59,6.59,3.30,3.30,5.32,0.00,20.65,20.91,749,1922,20244,37,185,44763,1
2020-08-24,18:36:07.33771,ERR,ErrD,0,0,84,1575,100,0,7,20,0.00,8608,10000,304,0,2.77,0.00,0.00,21.46,6.52,1.95,143.59,6.59,3.30,3.30,5.32,0.00,20.53,21.02,14359,16893,21653,37,9377,23332,1
2020-08-24,18:36:07.33989,ERR,ErrD,0,0,84,1591,100,0,7,20,0.00,8312,10000,475,0,4.49,4.37,0.00,21.15,6.57,0.59,148.77,6.59,3.30,3.30,5.32,0.00,20.49,21.10,29492,37738,19321,37,4164,38571,1
2020-08-24,18:36:07.34193,ERR,ErrD,0,0,84,1604,100,93,7,101,0.00,8622,10000,648,0,4.86,4.75,0.00,21.13,6.53,0.59,148.77,6.59,3.30,3.30,5.32,0.00,20.76,21.03,31184,35686,22719,37,22303,35915,1
2020-08-24,18:36:08.34393,ERR,ErrD,1,1527,0,1621,100,99,7,101,0.00,10000,6321,828,0,4.96,4.87,0.00,21.14,6.55,0.59,148.77,6.59,3.30,3.30,5.32,0.00,20.54,20.96,37109,35683,23121,37,21976,43294,0
2020-08-24,18:36:08.34594,ERR,ErrD,1,1527,0,1643,100,34,7,101,0.00,8314,12364,1032,0,4.98,4.92,0.00,21.07,6.57,0.28,151.28,6.58,3.28,3.30,5.32,0.00,20.42,21.07,30221,36657,25859,37,24578,31904,0
2020-08-24,18:36:08.34795,ERR,ErrD,1,1527,0,1665,100,0,7,101,0.00,8314,17980,1204,0,5.26,5.28,0.00,21.06,6.55,0.28,151.28,6.58,3.28,3.30,5.32,0.00,20.70,22.20,33192,37649,24589,37,22001,35801,1
2020-08-24,18:36:08.34995,ERR,ErrD,1,1527,0,1687,100,0,7,101,0.00,6904,17980,1368,0,5.18,5.15,0.00,21.17,6.54,1.36,163.48,6.58,3.28,3.30,5.32,0.00,20.53,21.17,30432,39543,22024,37,24525,30909,1
2020-08-24,18:36:08.35196,ERR,ErrD,1,1527,0,1709,100,0,7,19,0.00,8315,10324,1524,0,5.18,5.14,0.00,20.97,6.56,1.36,163.48,6.58,3.28,3.30,5.32,0.00,20.67,21.25,32080,38629,22939,37,19835,48088,0
2020-08-24,18:36:09.35397,ERR,ErrD,1,1527,0,1731,100,0,7,27,0.00,7423,18119,1696,0,5.12,5.02,0.00,21.02,6.53,1.36,163.48,6.57,3.28,3.30,5.32,0.00,20.40,22.05,34371,38750,23147,37,22142,31322,1
2020-08-24,18:36:09.35598,ERR,ErrD,1,1527,0,1753,100,0,7,27,0.00,7423,18119,1762,0,4.97,4.88,0.00,21.05,6.52,0.47,167.79,6.57,3.28,3.30,5.32,0.00,20.55,21.53,35605,38714,22793,37,28339,44297,1
2020-08-24,18:36:09.35798,ERR,ErrD,1,1527,0,1775,100,0,7,27,0.00,5206,18119,1597,0,4.99,4.94,0.00,20.92,6.59,0.47,167.79,6.57,3.28,3.30,5.32,0.00,20.52,23.01,33333,40283,19200,37,23257,37149,0
2020-08-24,18:36:09.35999,ERR,ErrD,1,1527,0,1797,100,0,7,27,0.00,5202,18119,1442,0,5.00,4.93,0.00,20.93,6.56,0.36,171.13,6.58,3.28,3.30,5.32,0.00,20.61,21.69,34810,37183,21305,37,19471,43290,1
2020-08-24,18:36:09.36199,ERR,ErrD,1,1527,0,1819,100,0,7,28,0.00,8324,10365,1270,0,5.30,5.32,0.00,21.07,6.52,0.36,171.13,6.58,3.28,3.30,5.32,0.00,20.42,21.78,33874,37497,17349,37,23349,43604,1
2020-08-24,18:36:10.36399,ERR,ErrD,1,4894,59,1841,100,0,7,28,0.00,8311,10365,1106,0,4.99,4.94,0.00,20.93,6.57,0.36,171.13,6.58,3.28,3.30,5.32,0.00,20.34,22.18,34335,41831,24118,37,24466,43223,0
2020-08-24,18:36:10.36600,ERR,ErrD,1,4894,59,1863,100,44,7,28,0.00,8335,14090,942,0,4.88,4.78,0.00,20.99,6.54,0.90,179.55,6.58,3.28,3.30,5.32,0.00,20.26,22.23,34961,40657,19262,37,23409,43468,1
2020-08-24,18:36:10.36801,ERR,ErrD,1,4894,59,1885,100,0,7,28,0.00,8317,17939,778,0,4.95,4.91,0.00,20.94,6.59,0.90,179.55,6.57,3.27,3.30,5.32,0.00,20.55,24.75,29111,38186,19818,37,19482,37178,1
2020-08-24,18:36:10.37001,ERR,ErrD,1,4894,59,1907,100,0,7,20,0.00,8333,10323,615,0,4.65,4.56,0.00,20.85,6.54,0.29,182.31,6.57,3.27,3.30,5.32,0.00,20.55,22.30,28079,38708,21534,37,34859,40770,0
2020-08-24,18:36:10.37201,ERR,ErrD,1,4894,59,1929,100,100,7,20,0.00,6614,11053,451,0,4.86,4.74,0.00,21.00,6.54,0.29,182.31,6.57,3.27,3.30,5.32,0.00,20.41,22.81,35346,39879,22067,37,27224,37214,0
2020-08-24,18:36:11.37402,ERR,ErrD,1,4894,59,1951,100,72,7,20,0.00,8313,12974,286,0,4.41,4.22,0.00,20.89,6.58,0.29,182.31,6.59,3.28,3.31,5.32,0.00,20.71,22.89,32233,37533,21114,37,29684,43289,0
2020-08-24,18:36:11.37602,ERR,ErrD,1,4894,59,1973,100,0,7,20,0.00,8313,17885,221,0,4.33,4.14,0.00,20.87,6.57,0.36,185.75,6.59,3.28,3.31,5.32,0.00,20.49,23.12,26223,41511,22573,37,32295,43335,1
2020-08-24,18:36:11.37802,ERR,ErrD,1,4894,59,1995,100,0,7,20,0.00,5204,17885,377,0,4.52,4.42,0.00,20.88,6.56,0.36,185.75,6.59,3.28,3.31,5.32,0.00,20.67,23.24,34438,40981,23572,37,32296,43435,1
2020-08-24,18:36:11.38002,ERR,ErrD,1,4894,59,2017,100,86,97,19,0.00,8330,10326,541,0,4.28,4.13,0.00,20.90,6.58,0.35,189.16,6.59,3.28,3.31,5.32,0.00,20.48,23.53,38202,38332,24031,37,33530,43403,0
2020-08-24,18:36:11.38202,ERR,ErrD,1,4894,59,2039,100,0,97,19,0.00,8325,15192,705,0,3.96,3.93,0.00,21.03,6.55,0.35,189.16,6.57,3.28,3.30,5.32,0.00,20.60,23.63,30710,38828,18747,37,28447,40953,0
2020-08-24,18:36:12.38403,ERR,ErrD,1,4167,119,2061,100,0,98,19,0.00,8313,18195,876,0,3.79,3.82,0.00,20.95,6.57,0.35,189.16,6.57,3.28,3.30,5.32,0.00,20.60,23.82,34210,34056,23419,37,31057,43363,1
2020-08-24,18:36:12.38602,ERR,ErrD,1,4167,119,2083,100,0,98,20,0.00,8313,18195,1032,0,3.78,3.82,0.00,20.98,6.57,0.27,191.87,6.57,3.28,3.30,5.32,0.00,20.64,24.03,31265,37670,25244,37,34833,39509,0
2020-08-24,18:36:12.38802,ERR,ErrD,1,4167,119,2105,100,93,99,20,0.00,8605,10047,1196,0,3.52,3.45,0.00,20.96,6.58,0.27,191.87,6.58,3.27,3.31,5.32,0.00,20.52,24.18,31894,38138,22616,37,36077,38348,1
2020-08-24,18:36:12.39002,ERR,ErrD,1,4167,119,2127,100,58,98,20,0.00,6626,11437,1360,0,3.84,3.85,0.00,20.86,6.58,0.38,195.71,6.58,3.27,3.31,5.32,0.00,20.60,25.97,33123,37244,21343,37,31051,40858,1
2020-08-24,18:36:12.39203,ERR,ErrD,1,4167,119,2148,100,100,98,20,0.00,6626,18951,1524,0,3.52,3.44,0.00,20.89,6.55,0.38,195.71,6.58,3.27,3.31,5.32,0.00,20.15,24.34,29909,39236,21788,37,33528,34554,0
2020-08-24,18:36:13.39404,ERR,ErrD,1,4167,119,2170,100,100,96,20,0.00,6626,19627,1696,0,3.53,3.43,0.00,20.85,6.52,0.38,195.71,6.58,3.27,3.31,5.32,0.00,20.84,24.67,32609,37890,20323,37,34750,35708,1
2020-08-24,18:36:13.39604,ERR,ErrD,1,4167,119,2192,100,100,96,20,0.00,6626,19627,1769,0,3.47,3.41,0.00,20.96,6.56,0.26,198.37,6.58,3.29,3.30,5.32,0.00,20.68,24.66,33500,32884,19888,37,33554,38178,0
2020-08-24,18:36:13.39804,ERR,ErrD,1,4167,119,2214,100,86,96,21,0.00,8325,10322,1606,0,3.50,3.40,0.00,20.94,6.52,0.26,198.37,6.58,3.29,3.30,5.32,0.00,20.39,24.83,33827,35428,20086,37,28509,31954,1
2020-08-24,18:36:13.40005,ERR,ErrD,1,4167,119,2236,100,0,97,21,0.00,8312,18019,1434,0,3.55,3.44,0.00,20.92,6.52,1.03,209.06,6.58,3.29,3.30,5.32,0.00,20.72,25.05,33882,34723,19183,37,34803,36983,0
2020-08-24,18:36:13.40205,ERR,ErrD,1,4167,119,2258,100,0,99,21,0.00,8089,18019,1270,0,3.51,3.43,0.00,20.86,6.47,1.03,209.06,6.57,3.29,3.29,5.32,0.00,20.46,25.22,32519,36017,19276,37,33564,33173,0
2020-08-24,18:36:14.40405,ERR,ErrD,1,3190,0,2280,100,0,99,21,0.00,6904,18019,1113,0,3.79,3.80,0.00,20.97,6.54,1.03,209.06,6.57,3.29,3.29,5.32,0.00,20.56,25.33,31020,34348,19125,37,29702,38312,1
2020-08-24,18:36:14.40605,ERR,ErrD,1,3190,0,2302,100,94,99,24,0.00,8617,10027,960,0,3.84,3.84,0.00,21.01,6.55,0.35,212.71,6.57,3.29,3.29,5.32,0.00,20.23,25.40,32645,36096,19249,37,30943,39546,0
2020-08-24,18:36:14.40805,ERR,ErrD,1,3190,0,2323,100,100,98,29,0.00,8333,19240,787,0,3.48,3.41,0.00,20.92,6.56,0.35,212.71,6.57,3.29,3.29,5.32,0.00,20.49,25.77,33052,34933,20018,37,30960,36991,1
2020-08-24,18:36:14.41007,ERR,ErrD,1,3190,0,2345,100,100,97,29,0.00,8311,19240,615,0,3.44,3.40,0.00,20.77,6.57,1.07,224.14,6.58,3.28,3.30,5.32,0.00,20.33,25.83,29355,32577,19811,37,29744,35744,1
2020-08-24,18:36:14.41207,ERR,ErrD,1,3190,0,2367,100,100,97,29,0.00,5203,19240,451,0,3.41,3.39,0.00,20.93,6.57,1.07,224.14,6.58,3.28,3.30,5.32,0.00,20.48,25.65,30921,30732,20270,37,23370,35713,0
2020-08-24,18:36:15.41409,ERR,ErrD,1,3190,0,2389,99,86,95,29,0.00,8312,10342,286,0,3.58,3.49,0.00,20.83,6.55,1.07,224.14,6.58,3.28,3.30,5.32,0.00,20.47,25.82,29269,32524,19690,37,29780,39614,0
2020-08-24,18:36:15.41610,ERR,ErrD,1,3190,0,2411,99,86,96,20,0.00,6908,10322,213,0,3.42,3.39,0.00,20.91,6.56,0.28,227.12,6.58,3.28,3.30,5.32,0.00,20.33,26.00,34883,37496,20073,37,33528,39517,0
2020-08-24,18:36:15.41811,ERR,ErrD,1,3190,0,2433,99,56,97,20,0.00,6626,11533,377,0,3.38,3.37,0.00,20.85,6.58,0.28,227.12,6.58,3.29,3.30,5.32,0.00,20.40,25.98,31747,36982,19784,37,28417,39558,0
2020-08-24,18:36:15.42011,ERR,ErrD,1,3190,0,2455,99,0,96,19,0.00,6626,17477,549,0,3.57,3.48,0.00,20.94,6.56,0.29,230.32,6.58,3.29,3.30,5.32,0.00,20.72,26.15,33137,35984,19125,37,30990,42168,1
2020-08-24,18:36:15.42213,ERR,ErrD,1,3190,0,2477,100,0,98,19,0.00,6626,17477,705,0,3.51,3.42,0.00,20.98,6.52,0.29,230.32,6.58,3.29,3.30,5.32,0.00,20.71,26.27,31381,37535,20626,37,30980,34473,0
2020-08-24,18:36:16.42413,ERR,ErrD,1,2894,0,2499,100,0,99,21,0.00,5205,17477,869,0,3.73,3.76,0.00,20.90,6.59,0.29,230.32,6.57,3.28,3.30,5.32,0.00,20.36,26.22,33197,36171,19447,37,28502,37071,0
2020-08-24,18:36:16.42613,ERR,ErrD,1,2894,0,2520,100,0,98,21,0.00,8314,18319,1032,0,3.44,3.43,0.00,20.90,6.56,0.90,240.34,6.57,3.28,3.30,5.32,0.00,20.47,26.51,30709,33349,19441,37,27188,43395,1
2020-08-24,18:36:16.42814,ERR,ErrD,1,2894,0,2542,100,0,98,21,0.00,8314,18319,1204,0,3.46,3.39,0.00,20.83,6.57,0.90,240.34,6.57,3.28,3.30,5.32,0.00,20.69,26.61,32822,31162,19689,37,25912,39653,1
2020-08-24,18:36:16.43013,ERR,ErrD,1,2894,0,2564,100,0,98,21,0.00,8311,18319,1360,0,3.60,3.55,0.00,20.87,6.58,0.28,243.48,6.57,3.28,3.30,5.32,0.00,20.54,26.58,29369,33469,19960,37,23398,39602,1
2020-08-24,18:36:16.43213,ERR,ErrD,1,2894,0,2586,100,0,98,22,0.00,6922,18319,1524,0,3.42,3.39,0.00,20.97,6.56,0.28,243.48,6.58,3.28,3.30,5.32,0.00,20.39,26.44,32221,33837,19560,37,32229,38344,1
2020-08-24,18:36:17.43413,ERR,ErrD,1,2894,0,2608,100,86,99,22,0.00,8332,10343,1688,0,3.40,3.37,0.00,21.09,6.57,0.28,243.48,6.58,3.28,3.30,5.32,0.00,20.76,28.46,23882,35410,19909,37,24631,39639,0
2020-08-24,18:36:17.43614,ERR,ErrD,1,2894,0,2630,100,0,99,22,0.00,6926,17997,1762,0,3.51,3.42,0.00,20.87,6.50,0.69,251.28,6.58,3.28,3.30,5.32,0.00,20.40,26.92,34130,35961,20698,37,32187,43381,0
2020-08-24,18:36:17.43815,ERR,ErrD,1,2894,0,2652,100,0,98,22,0.00,6901,17997,1597,0,3.45,3.38,0.00,20.90,6.55,0.69,251.28,6.57,3.27,3.30,5.32,0.00,20.26,27.03,27750,32663,20413,37,34759,42153,1
2020-08-24,18:36:17.44015,ERR,ErrD,1,2894,0,2674,100,0,98,19,0.00,8308,17997,1442,0,3.49,3.37,0.00,20.87,6.54,1.66,270.34,6.57,3.27,3.30,5.32,0.00,20.65,27.14,28040,29060,19571,37,24595,39499,0
2020-08-24,18:36:17.44217,ERR,ErrD,1,2894,0,2697,100,0,98,22,0.00,4934,17997,1270,0,3.41,3.36,0.00,20.98,6.54,1.66,270.34,6.57,3.27,3.30,5.32,0.00,20.44,27.29,31241,33502,19782,37,27165,42112,0
2020-08-24,18:36:18.44417,ERR,ErrD,1,2741,0,2719,100,86,99,22,0.00,8317,10326,1106,0,3.35,3.34,0.00,20.96,6.54,1.66,270.34,6.57,3.27,3.30,5.32,0.00,20.45,27.46,31320,32384,19785,37,25809,40861,0
2020-08-24,18:36:18.44617,ERR,ErrD,1,2741,0,2741,100,66,100,22,0.00,6613,11133,942,0,3.29,3.30,0.00,20.87,6.57,0.61,277.45,6.57,3.27,3.30,5.32,0.00,20.65,27.43,33118,32694,20050,37,29698,39574,0
2020-08-24,18:36:18.44817,ERR,ErrD,1,2741,0,2763,100,57,100,22,0.00,5206,11500,787,0,3.44,3.28,0.00,20.96,6.56,0.61,277.45,6.57,3.27,3.30,5.32,0.00,20.56,27.66,28849,33176,20702,37,27178,40839,0
2020-08-24,18:36:18.45018,ERR,ErrD,1,2741,0,2785,100,100,99,28,0.00,5206,19211,615,0,3.36,3.25,0.00,20.95,6.57,0.83,287.21,6.57,3.27,3.30,5.32,0.00,20.68,27.64,25623,33047,19518,37,25886,35770,0
2020-08-24,18:36:18.45219,ERR,ErrD,1,2741,0,2807,100,93,99,28,0.00,8604,10045,451,0,3.38,3.22,0.00,20.95,6.57,0.83,287.21,6.57,3.28,3.30,5.32,0.00,20.71,27.76,29434,31448,20374,37,30880,39567,0
2020-08-24,18:36:19.45420,ERR,ErrD,1,2741,0,2829,100,63,99,28,0.00,6919,11233,286,0,3.30,3.21,0.00,20.92,6.58,0.83,287.21,6.57,3.28,3.30,5.32,0.00,20.64,27.82,29351,34845,20509,37,29752,43367,1
2020-08-24,18:36:19.45621,ERR,ErrD,1,2741,0,2851,100,0,98,28,0.00,6919,17642,221,0,3.33,3.18,0.00,20.89,6.57,0.26,290.30,6.57,3.28,3.30,5.32,0.00,20.65,27.90,27545,35761,19797,37,28450,38299,0
2020-08-24,18:36:19.45821,ERR,ErrD,1,2741,0,2873,100,0,99,19,0.00,6919,17642,377,0,3.30,3.17,0.00,20.88,6.57,0.26,290.30,6.57,3.28,3.30,5.32,0.00,21.02,28.17,30838,33672,20081,37,24558,43409,0
2020-08-24,18:36:19.46022,ERR,ErrD,1,2741,0,2895,100,0,99,19,0.00,5208,17642,541,0,3.32,3.15,0.00,20.92,6.56,0.43,295.44,6.56,3.28,3.29,5.32,0.00,20.53,28.16,29288,31431,19984,37,20764,43314,0
2020-08-24,18:36:19.46223,ERR,ErrD,1,2741,0,2917,100,86,98,19,0.00,6904,10326,713,0,3.35,3.13,0.00,20.87,6.58,0.43,295.44,6.56,3.28,3.29,5.32,0.00,20.53,28.19,33046,32927,19955,37,28396,37002,0
2020-08-24,18:36:20.46424,ERR,ErrD,1,2620,0,2939,100,86,99,19,0.00,6904,10330,876,0,3.29,3.11,0.00,20.87,6.59,0.43,295.44,6.56,3.28,3.29,5.32,0.00,20.59,28.51,27971,36033,20297,37,22012,34448,0
2020-08-24,18:36:20.46625,ERR,ErrD,1,2620,0,2961,100,79,99,19,0.00,6914,20843,1032,0,3.27,3.10,0.00,21.08,6.51,0.97,307.28,6.57,3.28,3.30,5.32,0.00,20.54,28.58,30835,31814,20238,37,25796,35671,0
2020-08-24,18:36:20.46826,ERR,ErrD,1,2620,0,2983,100,79,98,27,0.00,6904,20843,1204,0,3.25,3.07,0.00,20.85,6.54,0.97,307.28,6.57,3.28,3.30,5.32,0.00,20.45,28.57,29850,31698,20264,37,21984,30682,0
2020-08-24,18:36:20.47027,ERR,ErrD,1,2620,0,3005,100,67,99,27,0.00,8325,11101,1368,0,3.20,3.05,0.00,20.89,6.56,0.26,310.53,6.57,3.28,3.30,5.32,0.00,20.53,28.76,34432,33048,20578,37,30890,34374,0
2020-08-24,18:36:20.47226,ERR,ErrD,1,2620,0,3027,100,67,99,27,0.00,6906,11101,1531,0,3.44,3.10,0.00,20.81,6.57,0.26,310.53,6.57,3.28,3.30,5.32,0.00,20.43,28.72,31651,37588,20159,37,27131,37139,0
2020-08-24,18:36:21.47426,ERR,ErrD,1,2620,0,3049,100,57,99,27,0.00,6622,11505,1688,0,3.39,3.10,0.00,20.90,6.57,0.26,310.53,6.56,3.26,3.30,5.32,0.00,20.66,28.88,32836,32866,20746,37,34728,39579,0
2020-08-24,18:36:21.47626,ERR,ErrD,1,2620,0,3071,100,0,99,24,0.00,6920,15627,1769,0,3.31,3.05,0.00,20.99,6.55,0.27,313.87,6.56,3.26,3.30,5.32,0.00,20.50,28.94,30923,27037,20142,37,6752,29456,0
2020-08-24,18:36:21.47827,ERR,ErrD,1,2620,0,3093,100,100,98,24,0.00,6920,19676,1597,0,3.26,3.04,0.00,20.91,6.57,0.27,313.87,6.56,3.26,3.30,5.32,0.00,20.50,29.03,25573,31165,19568,37,25829,41931,0
2020-08-24,18:36:21.48027,ERR,ErrD,1,2620,0,3115,100,86,97,24,0.00,6919,10329,1434,0,3.21,3.02,0.00,21.01,6.57,1.92,338.11,6.57,3.28,3.30,5.32,0.00,20.37,29.13,29028,31119,20748,37,27030,29277,0
2020-08-24,18:36:21.48227,ERR,ErrD,1,2620,0,3137,100,9,97,24,0.00,6902,13390,1270,0,3.43,3.06,0.00,20.86,6.57,1.92,338.11,6.57,3.28,3.30,5.32,0.00,20.70,30.01,23751,35385,19943,37,22092,33190,0
2020-08-24,18:36:22.48427,ERR,ErrD,1,2467,0,3158,100,0,97,19,0.00,6902,16386,1113,0,3.38,3.04,0.00,20.90,6.55,1.92,338.11,6.57,3.28,3.30,5.32,0.00,20.63,29.37,29542,33989,20343,37,23256,30726,0
2020-08-24,18:36:22.48627,ERR,ErrD,1,2467,0,3180,100,0,98,27,0.00,6902,18100,942,0,3.33,3.03,0.00,20.88,6.55,0.26,341.41,6.57,3.28,3.30,5.32,0.00,20.56,29.41,29004,34387,20461,37,30905,38090,0
2020-08-24,18:36:22.48828,ERR,ErrD,1,2467,0,3202,100,94,98,27,0.00,8619,10011,778,0,3.29,3.02,0.00,20.98,6.54,0.26,341.41,6.58,3.28,3.30,5.32,0.00,20.39,29.50,24476,33017,20327,37,24587,29411,0
2020-08-24,18:36:22.49031,ERR,ErrD,1,2467,0,3225,100,60,99,27,0.00,6905,11372,606,0,3.20,2.99,0.00,20.88,6.58,0.29,345.19,6.58,3.28,3.30,5.32,0.00,20.52,29.42,28727,36313,20166,37,22048,25539,0
2020-08-24,18:36:22.49231,ERR,ErrD,1,2467,0,3247,100,60,99,27,0.00,6905,11372,451,0,3.17,2.99,0.00,20.99,6.57,0.29,345.19,6.58,3.28,3.30,5.32,0.00,20.33,29.66,30238,37054,19726,37,22014,34378,0
2020-08-24,18:36:23.49432,ERR,ErrD,1,2467,0,3269,100,51,100,19,0.00,6901,11738,286,0,3.24,2.98,0.00,20.89,6.52,0.29,345.19,6.57,3.27,3.30,5.32,0.00,20.65,31.57,26330,36513,20177,37,25839,34411,0
2020-08-24,18:36:23.49632,ERR,ErrD,1,2467,0,3291,100,51,99,19,0.00,5203,11738,213,0,3.35,2.97,0.00,20.79,6.52,0.30,349.06,6.57,3.27,3.30,5.32,0.00,20.49,29.44,29746,34030,20294,37,24580,35735,1
2020-08-24,18:36:23.49833,ERR,ErrD,1,2467,0,3313,100,86,98,19,0.00,6919,10322,385,0,3.31,2.96,0.00,20.85,6.53,0.30,349.06,6.57,3.27,3.30,5.32,0.00,20.66,29.82,27568,37261,19749,37,27130,43241,0
2020-08-24,18:36:23.50035,ERR,ErrD,1,2467,0,3335,100,86,97,19,0.00,6919,10324,541,0,3.33,2.92,0.00,20.86,6.51,1.24,365.38,6.57,3.27,3.30,5.32,0.00,20.73,29.94,30738,37516,19475,37,25825,31826,0
2020-08-24,18:36:24.50235,ERR,ErrD,1,2467,0,3357,100,2,96,23,0.00,6613,13703,705,0,3.27,2.89,0.00,20.98,6.56,1.24,365.38,6.57,3.28,3.30,5.32,0.00,20.43,30.11,29805,36366,20016,37,24615,35694,0
2020-08-24,18:36:24.50436,ERR,ErrD,1,2475,29,3379,100,0,94,23,0.00,6613,16710,876,0,3.23,2.87,0.00,20.89,6.54,1.24,365.38,6.57,3.28,3.30,5.32,0.00,20.39,30.03,33088,40280,20226,37,24546,31851,0
2020-08-24,18:36:24.50637,ERR,ErrD,1,2475,29,3401,100,86,96,23,0.00,8606,10321,1040,0,3.46,3.01,0.00,20.94,6.55,0.30,369.33,6.57,3.28,3.30,5.32,0.00,20.44,30.28,30352,37990,19312,37,28454,30649,0
2020-08-24,18:36:24.50837,ERR,ErrD,1,2475,29,3423,100,32,95,26,0.00,5204,12498,1204,0,3.46,3.40,0.00,20.87,6.55,0.30,369.33,6.57,3.28,3.30,5.32,0.00,20.48,30.38,28862,36771,19758,37,33524,38186,1
2020-08-24,18:36:24.51039,ERR,ErrD,1,2475,29,3445,100,0,97,26,0.00,5204,18273,1368,0,3.47,3.41,0.00,20.98,6.57,0.29,373.27,6.58,3.28,3.30,5.32,0.00,20.65,30.33,24080,35920,19984,37,33506,29261,0
2020-08-24,18:36:25.51239,ERR,ErrD,1,2475,29,3467,100,0,99,26,0.00,5204,18273,1531,0,3.61,3.56,0.00,20.87,6.54,0.29,373.27,6.58,3.28,3.30,5.32,0.00,20.58,30.18,27420,37650,20003,37,28499,26808,1
2020-08-24,18:36:25.51439,ERR,ErrD,1,2475,29,3489,100,0,99,26,0.00,5204,18273,1696,0,3.54,3.45,0.00,20.83,6.56,0.29,373.27,6.58,3.28,3.30,5.32,0.00,20.71,30.62,31274,35630,18907,37,32283,33078,0
2020-08-24,18:36:25.51640,ERR,ErrD,1,2475,29,3511,100,86,100,19,0.00,7743,10330,1762,0,3.56,3.49,0.00,20.87,6.54,0.25,376.68,6.57,3.28,3.30,5.32,0.00,20.56,30.26,36447,37303,20475,37,27270,33165,1
2020-08-24,18:36:25.51839,ERR,ErrD,1,2475,29,3533,100,0,100,19,0.00,6901,17505,1597,0,3.54,3.48,0.00,20.70,6.54,0.25,376.68,6.57,3.28,3.30,5.32,0.00,20.51,30.79,31648,36243,20851,37,32320,34413,0
2020-08-24,18:36:25.52041,ERR,ErrD,1,2475,29,3555,100,0,100,19,0.00,6901,17505,1434,0,3.63,3.66,0.00,20.94,6.53,0.42,382.42,6.57,3.28,3.30,5.32,0.00,20.39,31.13,27078,35239,20841,37,19845,30856,1
2020-08-24,18:36:26.52241,ERR,ErrD,1,2475,29,3577,100,0,100,19,0.00,6619,17505,1270,0,3.90,3.89,0.00,21.09,6.51,0.42,382.42,6.57,3.28,3.30,5.32,0.00,20.50,31.01,26739,37561,21738,37,4159,60919,1
2020-08-24,18:36:26.52442,ERR,ErrD,1,3037,29,3599,100,0,98,20,0.00,6619,17505,1097,0,4.00,3.97,0.00,20.99,6.54,0.42,382.42,6.54,3.26,3.28,5.32,0.00,20.51,31.22,27879,36487,21182,37,63680,16370,1
2020-08-24,18:36:26.52641,ERR,ErrD,1,3037,29,3621,100,86,97,20,0.00,8317,10327,934,0,4.45,4.22,0.00,21.18,6.48,1.02,396.53,6.54,3.26,3.28,5.32,0.00,20.66,31.33,29789,36715,19566,37,63097,24888,0
2020-08-24,18:36:26.52841,ERR,ErrD,1,3037,29,3643,100,86,97,20,0.00,6921,10327,778,0,4.24,4.06,0.00,20.97,6.57,1.02,396.53,6.54,3.26,3.28,5.32,0.00,20.50,31.43,28303,32950,19471,37,60664,19847,0
2020-08-24,18:36:26.53042,ERR,ErrD,1,3037,29,3665,100,31,97,20,0.00,6630,12518,615,0,3.82,3.82,0.00,21.00,6.52,1.02,396.53,6.56,3.26,3.30,5.32,0.00,20.72,31.53,32162,36482,19008,37,62234,56815,0
2020-08-24,18:36:27.53242,ERR,ErrD,1,3037,29,3686,100,0,98,20,0.00,6630,17639,451,0,3.48,3.41,0.00,20.88,6.55,0.91,409.31,6.56,3.26,3.30,5.32,0.00,20.59,31.52,24533,34599,21029,37,21005,29469,0
2020-08-24,18:36:27.53443,ERR,ErrD,1,3037,29,3708,100,86,97,20,0.00,8326,10324,279,0,3.47,3.41,0.00,21.05,6.57,0.91,409.31,6.56,3.26,3.30,5.32,0.00,20.39,31.94,34429,36063,23257,37,3115,27776,0
2020-08-24,18:36:27.53644,ERR,ErrD,1,3037,29,3730,100,70,98,20,0.00,6904,10963,213,0,3.63,3.66,0.00,20.95,6.57,0.40,414.99,6.56,3.26,3.30,5.32,0.00,20.46,31.66,28314,36571,19353,37,4828,39585,1
2020-08-24,18:36:27.53844,ERR,ErrD,1,3037,29,3752,100,14,98,23,0.00,5201,13213,377,0,3.91,3.94,0.00,21.23,6.53,0.40,414.99,6.56,3.27,3.29,5.32,0.00,20.44,31.91,31679,37848,20526,37,6260,21113,0
2020-08-24,18:36:27.54045,ERR,ErrD,1,3037,29,3774,100,0,98,23,0.00,5201,17433,549,0,4.14,4.01,0.00,21.03,6.47,0.40,414.99,6.56,3.27,3.29,5.32,0.00,20.71,31.93,27953,31662,20686,37,3074,55921,1
2020-08-24,18:36:28.54245,ERR,ErrD,1,3037,29,3796,100,0,97,23,0.00,5201,17433,713,0,4.22,4.05,0.00,21.00,6.54,0.61,423.72,6.56,3.27,3.29,5.32,0.00,20.21,32.07,22039,36958,19404,37,62918,19070,1
2020-08-24,18:36:28.54446,ERR,ErrD,1,3370,59,3818,100,51,89,23,0.00,6923,11744,869,0,3.87,3.86,0.00,21.01,6.41,0.61,423.72,6.56,3.27,3.29,5.32,0.00,20.37,32.23,23980,37616,19665,37,61273,20264,0
2020-08-24,18:36:28.54647,ERR,ErrD,1,3370,59,3840,100,0,84,25,0.00,6905,16195,1032,0,3.81,3.81,0.00,21.08,6.51,0.25,427.28,6.56,3.27,3.29,5.32,0.00,20.34,31.90,29281,29046,21115,37,62885,29948,1
2020-08-24,18:36:28.54848,ERR,ErrD,1,3370,59,3862,100,0,82,25,0.00,6903,16195,1196,0,3.70,3.74,0.00,20.91,6.55,0.25,427.28,6.56,3.27,3.29,5.32,0.00,20.76,32.28,29812,30050,22796,37,59437,62855,1
2020-08-24,18:36:28.55049,ERR,ErrD,1,3370,59,3884,100,0,80,25,0.00,4924,16195,1360,0,3.72,3.76,0.00,20.89,6.54,0.25,427.28,6.56,3.27,3.29,5.32,0.00,20.54,32.40,21011,37980,18784,37,34632,11987,0
2020-08-24,18:36:29.55250,ERR,ErrD,1,3370,59,3906,100,86,85,25,0.00,8604,10323,1531,0,3.48,3.42,0.00,21.09,6.56,0.96,441.18,6.56,3.27,3.29,5.32,0.00,20.57,32.52,32818,39354,19540,37,3436,6112,0
2020-08-24,18:36:29.55450,ERR,ErrD,1,3370,59,3928,100,86,92,19,0.00,8310,10348,1688,0,3.51,3.50,0.00,21.08,6.56,0.96,441.18,6.56,3.27,3.29,5.32,0.00,20.50,34.02,32459,40928,21206,37,2462,28282,0
2020-08-24,18:36:29.55651,ERR,ErrD,1,3370,59,3950,100,51,95,19,0.00,6910,11728,1769,0,3.76,3.78,0.00,20.89,6.56,0.39,446.90,6.56,3.27,3.29,5.32,0.00,20.51,32.84,23636,38982,18461,37,45867,3851,0
2020-08-24,18:36:29.55850,ERR,ErrD,1,3370,59,3972,100,15,97,19,0.00,6621,13172,1606,0,3.53,3.45,0.00,20.99,6.56,0.39,446.90,6.56,3.28,3.29,5.32,0.00,20.65,32.69,21512,39169,23954,37,23483,57918,1
2020-08-24,18:36:29.56050,ERR,ErrD,1,3370,59,3994,100,100,96,19,0.00,6621,19252,1434,0,3.44,3.40,0.00,20.93,6.54,0.39,446.90,6.56,3.28,3.29,5.32,0.00,20.54,32.81,21090,36004,15703,37,2605,59193,0
2020-08-24,18:36:30.56250,ERR,ErrD,1,3370,59,4016,100,86,96,20,0.00,6905,10349,1270,0,4.18,4.06,0.00,20.92,6.57,0.96,461.20,6.56,3.28,3.29,5.32,0.00,20.53,32.89,25824,39902,17354,37,1719,59995,0
2020-08-24,18:36:30.56450,ERR,ErrD,1,3274,119,4038,100,51,97,20,0.00,6903,11742,1113,0,3.68,3.73,0.00,20.84,6.51,0.96,461.20,6.56,3.28,3.29,5.32,0.00,20.57,33.12,25784,40813,22991,37,63912,24052,1
2020-08-24,18:36:30.56650,ERR,ErrD,1,3274,119,4060,100,30,97,22,0.00,5202,12579,950,0,3.60,3.55,0.00,21.05,6.51,1.77,487.74,6.56,3.28,3.29,5.32,0.00,20.48,32.61,25496,39705,16411,37,51018,6958,1
2020-08-24,18:36:30.56850,ERR,ErrD,1,3274,119,4082,100,14,99,22,0.00,5202,13206,787,0,3.67,3.69,0.00,21.04,6.54,1.77,487.74,6.56,3.28,3.29,5.32,0.00,20.30,33.16,23028,40029,19792,37,64226,12598,1
2020-08-24,18:36:30.57050,ERR,ErrD,1,3274,119,4104,100,93,99,22,0.00,8605,10031,615,0,3.62,3.61,0.00,21.04,6.50,1.77,487.74,6.56,3.28,3.29,5.32,0.00,20.35,33.27,23919,39944,23767,37,54759,58870,1
2020-08-24,18:36:31.57251,ERR,ErrD,1,3274,119,4126,100,51,99,22,0.00,6926,11733,451,0,3.47,3.40,0.00,21.02,6.56,0.29,492.10,6.55,3.26,3.29,5.32,0.00,20.62,33.29,24528,37397,16146,37,1668,28587,0
2020-08-24,18:36:31.57453,ERR,ErrD,1,3274,119,4148,100,51,99,20,0.00,6902,11733,295,0,4.00,3.93,0.00,20.98,6.53,0.29,492.10,6.55,3.26,3.29,5.32,0.00,20.44,33.45,23781,38479,20451,37,1424,54497,0
2020-08-24,18:36:31.57654,ERR,ErrD,1,3274,119,4170,100,0,97,20,0.00,6902,17463,213,0,3.77,3.78,0.00,21.02,6.53,0.66,502.20,6.55,3.26,3.29,5.32,0.00,20.55,33.37,24259,37642,24031,37,29688,23372,1
2020-08-24,18:36:31.57854,ERR,ErrD,1,3274,119,4192,100,0,97,20,0.00,6902,17463,377,0,3.50,3.41,0.00,21.10,6.54,0.66,502.20,6.55,3.26,3.29,5.32,0.00,20.44,33.53,20674,36960,15296,37,62011,4966,0
2020-08-24,18:36:31.58055,ERR,ErrD,1,3274,119,4214,100,93,97,20,0.00,8601,10048,541,0,3.68,3.71,0.00,21.01,6.55,0.66,502.20,6.56,3.27,3.29,5.32,0.00,20.40,33.80,26150,40210,23149,37,64007,58991,1
2020-08-24,18:36:32.58258,ERR,ErrD,1,3274,119,4236,100,100,96,19,0.00,6920,19290,705,0,3.73,3.75,0.00,20.94,6.48,1.68,528.00,6.56,3.27,3.29,5.32,0.00,20.49,33.71,27382,39062,21416,37,4664,62053,1
2020-08-24,18:36:32.58459,ERR,ErrD,1,3221,29,4258,100,100,98,19,0.00,6920,19290,869,0,3.73,3.75,0.00,20.95,6.55,1.68,528.00,6.56,3.27,3.29,5.32,0.00,20.61,33.97,19855,38245,14711,37,1758,55727,0
2020-08-24,18:36:32.58658,ERR,ErrD,1,3221,29,4280,100,100,98,19,0.00,6907,19290,1032,0,3.80,3.83,0.00,21.00,6.52,1.46,550.65,6.56,3.27,3.29,5.32,0.00,20.37,34.04,29504,35599,23875,37,18391,59398,0
2020-08-24,18:36:32.58859,ERR,ErrD,1,3221,29,4302,100,93,97,19,0.00,8610,10035,1204,0,3.62,3.61,0.00,20.88,6.55,1.46,550.65,6.56,3.27,3.29,5.32,0.00,20.80,34.21,29378,43101,18444,37,5063,4692,1
2020-08-24,18:36:32.59060,ERR,ErrD,1,3221,29,4324,100,85,97,19,0.00,6905,10361,1360,0,3.78,3.82,0.00,20.92,6.57,1.46,550.65,6.56,3.27,3.29,5.32,0.00,20.70,34.26,33022,34439,15399,37,1917,4759,1
2020-08-24,18:36:33.59260,ERR,ErrD,1,3221,29,4346,100,32,98,22,0.00,4551,12491,1524,0,3.55,3.47,0.00,20.87,6.51,0.26,554.78,6.56,3.27,3.29,5.32,0.00,20.68,34.36,30521,37381,24763,37,6165,60269,0
2020-08-24,18:36:33.59460,ERR,ErrD,1,3221,29,4368,100,14,98,22,0.00,4551,13220,1688,0,4.09,3.96,0.00,20.79,6.55,0.26,554.78,6.56,3.28,3.29,5.32,0.00,20.70,34.03,35269,39381,19694,37,62804,62073,0
2020-08-24,18:36:33.59661,ERR,ErrD,1,3221,29,4390,100,0,99,22,0.00,4551,17397,1762,0,3.78,3.81,0.00,20.92,6.55,0.82,567.69,6.56,3.28,3.29,5.32,0.00,20.87,34.56,26840,36445,17124,37,61962,23981,0
2020-08-24,18:36:33.59861,ERR,ErrD,1,3221,29,4412,100,86,99,22,0.00,6923,10324,1606,0,3.50,3.42,0.00,20.94,6.54,0.82,567.69,6.56,3.28,3.29,5.32,0.00,20.65,34.56,31965,38838,21246,37,62776,41629,1
2020-08-24,18:36:33.60061,ERR,ErrD,1,3221,29,4434,100,25,97,22,0.00,5206,12784,1442,0,3.61,3.60,0.00,20.80,6.52,0.82,567.69,6.57,3.27,3.30,5.32,0.00,20.62,34.68,26520,38777,18525,37,2293,33550,0
2020-08-24,18:36:34.60262,ERR,ErrD,1,3221,29,4457,100,0,97,22,0.00,8329,15841,1270,0,3.46,3.40,0.00,20.83,6.55,0.43,574.57,6.57,3.27,3.30,5.32,0.00,20.74,34.70,31046,36013,16857,37,3137,5454,1
2020-08-24,18:36:34.60463,ERR,ErrD,1,3191,29,4479,100,0,97,22,0.00,6910,15841,1106,0,3.45,3.39,0.00,20.86,6.59,0.43,574.57,6.57,3.27,3.30,5.32,0.00,20.64,34.84,33097,35884,23511,37,1612,57476,0
2020-08-24,18:36:34.60662,ERR,ErrD,1,3191,29,4501,100,93,97,22,0.00,8607,10042,950,0,3.45,3.40,0.00,20.97,6.52,0.69,585.62,6.57,3.27,3.30,5.32,0.00,20.41,35.00,30906,38252,16256,37,2069,42891,0
2020-08-24,18:36:34.60863,ERR,ErrD,1,3191,29,4523,100,0,98,23,0.00,8319,14172,787,0,3.39,3.38,0.00,21.10,6.56,0.69,585.62,6.57,3.27,3.30,5.32,0.00,20.50,35.95,28111,34803,20737,37,51684,62915,1
2020-08-24,18:36:34.61063,ERR,ErrD,1,3191,29,4545,100,0,97,25,0.00,6904,16648,615,0,3.39,3.36,0.00,20.89,6.56,0.69,585.62,6.57,3.27,3.30,5.32,0.00,20.72,35.05,31738,37644,23207,37,44366,40425,0
2020-08-24,18:36:35.61264,ERR,ErrD,1,3191,29,4567,100,0,98,25,0.00,6901,16648,451,0,3.63,3.67,0.00,20.97,6.56,0.35,591.33,6.57,3.27,3.30,5.32,0.00,20.65,35.04,31246,34976,17167,37,3911,2853,1
2020-08-24,18:36:35.61465,ERR,ErrD,1,3191,29,4589,100,0,98,25,0.00,6901,16648,286,0,3.47,3.40,0.00,21.08,6.54,0.35,591.33,6.56,3.27,3.29,5.32,0.00,20.61,35.27,33183,33948,21396,37,25888,40416,1
2020-08-24,18:36:35.61665,ERR,ErrD,1,3191,29,4611,100,86,99,25,0.00,8323,10332,213,0,3.46,3.41,0.00,20.86,6.56,0.36,597.22,6.56,3.27,3.29,5.32,0.00,20.59,36.34,31994,37402,23156,37,48264,15589,0
2020-08-24,18:36:35.61865,ERR,ErrD,1,3191,29,4633,100,100,99,21,0.00,6924,19326,377,0,3.89,3.93,0.00,20.94,6.56,0.36,597.22,6.56,3.27,3.29,5.32,0.00,20.48,35.27,25530,35790,14345,37,24593,24482,0
2020-08-24,18:36:35.62065,ERR,ErrD,1,3191,29,4655,100,100,99,20,0.00,6902,19326,541,0,3.70,3.75,0.00,21.08,6.59,0.36,597.22,6.56,3.27,3.29,5.32,0.00,20.58,35.39,26022,37491,20100,37,64134,56932,0
2020-08-24,18:36:36.62267,ERR,ErrD,1,3191,29,4677,100,100,98,20,0.00,6902,19326,705,0,3.56,3.43,0.00,20.96,6.52,0.90,612.09,6.56,3.27,3.29,5.32,0.00,20.39,36.19,20536,39784,22614,37,55784,7101,0
2020-08-24,18:36:36.62467,ERR,ErrD,1,3161,29,4698,100,100,97,20,0.00,6902,19326,869,0,3.83,3.83,0.00,20.99,6.55,0.90,612.09,6.56,3.27,3.29,5.32,0.00,20.55,35.54,28477,38370,15021,37,55916,6375,1
2020-08-24,18:36:36.62667,ERR,ErrD,1,3161,29,4720,100,86,96,20,0.00,6918,10325,1032,0,3.45,3.40,0.00,20.83,6.56,0.31,617.17,6.56,3.27,3.29,5.32,0.00,20.74,35.60,25129,39176,21761,37,48375,54002,0
2020-08-24,18:36:36.62868,ERR,ErrD,1,3161,29,4742,100,5,97,23,0.00,5204,13582,1196,0,3.71,3.76,0.00,20.99,6.54,0.31,617.17,6.56,3.27,3.29,5.32,0.00,20.40,35.62,24898,37681,21489,37,3529,56950,1
2020-08-24,18:36:36.63070,ERR,ErrD,1,3161,29,4765,100,5,96,23,0.00,5204,13582,1368,0,3.55,3.49,0.00,20.87,6.56,0.31,617.17,6.56,3.27,3.29,5.32,0.00,20.39,35.30,25243,40782,16297,37,1655,41675,1
2020-08-24,18:36:37.63270,ERR,ErrD,1,3161,29,4787,100,5,98,23,0.00,5204,13582,1531,0,3.60,3.60,0.00,20.92,6.57,0.29,622.09,6.56,3.27,3.29,5.32,0.00,20.69,36.65,25133,39778,21141,37,1780,50604,1
2020-08-24,18:36:37.63470,ERR,ErrD,1,3161,29,4809,100,86,98,23,0.00,8316,10324,1688,0,3.59,3.60,0.00,20.90,6.57,0.29,622.09,6.56,3.27,3.29,5.32,0.00,20.40,35.41,23156,35610,20741,37,1383,14465,1
2020-08-24,18:36:37.63670,ERR,ErrD,1,3161,29,4831,100,24,99,22,0.00,5205,12798,1769,0,3.59,3.56,0.00,20.95,6.54,1.05,639.82,6.56,3.26,3.30,5.32,0.00,20.62,35.93,25819,39756,16681,37,54754,34680,1
2020-08-24,18:36:37.63870,ERR,ErrD,1,3161,29,4853,100,0,99,22,0.00,8315,14352,1606,0,3.64,3.62,0.00,20.99,6.52,1.05,639.82,6.56,3.26,3.30,5.32,0.00,20.46,36.34,24247,37822,18598,37,64470,35353,0
2020-08-24,18:36:37.64070,ERR,ErrD,1,3161,29,4875,100,0,98,22,0.00,6903,17920,1434,0,3.50,3.42,0.00,21.00,6.52,1.05,639.82,6.56,3.26,3.30,5.32,0.00,20.57,36.02,30396,39951,19734,37,3043,19287,1
2020-08-24,18:36:38.64270,ERR,ErrD,1,3161,29,4897,100,0,98,22,0.00,6903,17920,1277,0,3.45,3.40,0.00,20.97,6.56,0.77,653.04,6.56,3.26,3.30,5.32,0.00,20.57,36.01,24373,40386,19551,37,3611,43639,0
2020-08-24,18:36:38.64471,ERR,ErrD,1,3188,29,4919,100,93,97,20,0.00,8605,10041,1113,0,3.49,3.40,0.00,20.94,6.54,0.77,653.04,6.56,3.27,3.29,5.32,0.00,20.74,36.09,24869,39973,19939,37,4990,22307,1
2020-08-24,18:36:38.64671,ERR,ErrD,1,3188,29,4941,100,16,97,22,0.00,6618,13131,950,0,3.47,3.39,0.00,20.90,6.51,0.31,658.37,6.56,3.27,3.29,5.32,0.00,20.63,35.75,23530,39712,25899,37,60394,15755,0
2020-08-24,18:36:38.64871,ERR,ErrD,1,3188,29,4963,100,0,97,22,0.00,6618,18016,778,0,3.52,3.43,0.00,21.08,6.50,0.31,658.37,6.56,3.27,3.29,5.32,0.00,20.39,36.07,34275,37694,22165,37,57210,16927,0
2020-08-24,18:36:38.65071,ERR,ErrD,1,3188,29,4985,100,0,93,28,0.00,6618,18016,615,0,3.67,3.70,0.00,21.01,6.55,0.31,658.37,6.57,3.27,3.30,5.32,0.00,20.75,36.23,34731,34793,20865,37,1705,51425,0
2020-08-24,18:36:39.65272,ERR,ErrD,1,3188,29,5007,100,93,85,28,0.00,8338,10041,459,0,3.65,3.68,0.00,21.06,6.57,1.30,680.97,6.57,3.27,3.30,5.32,0.00,20.62,36.27,30594,35763,24548,37,34438,29545,1
2020-08-24,18:36:39.65471,ERR,ErrD,1,3188,29,5029,100,0,83,32,0.00,6904,14358,286,0,3.79,3.80,0.00,20.94,6.53,1.30,680.97,6.57,3.27,3.30,5.32,0.00,20.49,35.88,29830,36924,23673,37,31029,37727,1
2020-08-24,18:36:39.65671,ERR,ErrD,1,3188,29,5051,100,0,82,32,0.00,6904,17919,221,0,3.58,3.48,0.00,20.98,6.54,0.31,686.31,6.57,3.27,3.30,5.32,0.00,20.64,36.38,25598,35980,27083,37,30974,30863,0
2020-08-24,18:36:39.65872,ERR,ErrD,1,3188,29,5073,100,0,84,32,0.00,6904,17919,385,0,3.49,3.42,0.00,20.91,6.54,0.31,686.31,6.56,3.27,3.29,5.32,0.00,20.69,36.37,31001,39710,27455,37,29667,30431,0
2020-08-24,18:36:39.66072,ERR,ErrD,1,3188,29,5095,100,0,90,32,0.00,5206,17919,541,0,3.50,3.43,0.00,20.87,6.54,0.31,686.31,6.56,3.27,3.29,5.32,0.00,20.69,36.42,31570,34769,26264,37,32264,36966,0
2020-08-24,18:36:40.66273,ERR,ErrD,1,3188,29,5117,100,51,96,28,0.00,6902,11728,705,0,3.49,3.43,0.00,20.99,6.52,0.28,691.18,6.56,3.27,3.29,5.32,0.00,20.71,36.48,33340,35502,27646,37,28389,31855,1
2020-08-24,18:36:40.66474,ERR,ErrD,1,3132,59,5139,100,0,98,28,0.00,6902,16463,876,0,3.48,3.41,0.00,20.96,6.51,0.28,691.18,6.56,3.28,3.29,5.32,0.00,20.72,36.44,24619,36314,31389,37,30933,28053,0
2020-08-24,18:36:40.66674,ERR,ErrD,1,3132,59,5161,100,0,99,19,0.00,5206,16463,1040,0,3.49,3.43,0.00,20.91,6.52,0.29,696.30,6.56,3.28,3.29,5.32,0.00,20.64,36.53,33176,38073,26983,37,30877,34391,1
2020-08-24,18:36:40.66874,ERR,ErrD,1,3132,59,5183,100,0,99,19,0.00,5206,16463,1196,0,3.47,3.41,0.00,20.89,6.55,0.29,696.30,6.56,3.28,3.29,5.32,0.00,20.48,37.34,29469,36135,27745,37,32288,38199,1
2020-08-24,18:36:40.67074,ERR,ErrD,1,3132,59,5205,100,86,99,23,0.00,8338,10325,1360,0,3.42,3.39,0.00,20.93,6.54,0.29,696.30,6.56,3.28,3.29,5.32,0.00,20.65,36.68,31162,38722,27884,37,32188,30523,1
2020-08-24,18:36:41.67274,ERR,ErrD,1,3132,59,5227,100,0,99,23,0.00,8315,18355,1531,0,3.42,3.39,0.00,21.05,6.48,0.37,702.97,6.57,3.27,3.30,5.32,0.00,20.71,36.66,26771,37044,28465,38,32210,35604,1
2020-08-24,18:36:41.67475,ERR,ErrD,1,3132,59,5249,100,0,98,23,0.00,6921,18355,1696,0,3.46,3.40,0.00,20.99,6.57,0.37,702.97,6.57,3.27,3.30,5.32,0.00,20.87,37.37,27992,33401,27249,37,31000,35800,1
2020-08-24,18:36:41.67674,ERR,ErrD,1,3132,59,5271,100,0,97,23,0.00,4908,18355,1762,0,3.49,3.41,0.00,21.01,6.50,1.92,737.67,6.57,3.27,3.30,5.32,0.00,20.42,36.78,29145,35876,29166,38,29749,33170,1
2020-08-24,18:36:41.67875,ERR,ErrD,1,3132,59,5293,100,0,97,21,0.00,6904,18355,1606,0,3.65,3.67,0.00,21.06,6.50,1.92,737.67,6.56,3.27,3.29,5.32,0.00,20.50,36.85,30829,36991,27296,37,31044,31899,1
2020-08-24,18:36:41.68075,ERR,ErrD,1,3132,59,5315,100,85,97,27,0.00,8323,10363,1434,0,3.52,3.43,0.00,20.98,6.50,1.92,737.67,6.56,3.27,3.29,5.32,0.00,20.70,36.35,23868,33653,31187,37,32373,31903,0
2020-08-24,18:36:42.68275,ERR,ErrD,1,3132,59,5337,100,85,98,27,0.00,7670,10363,1270,0,3.72,3.72,0.00,21.08,6.46,1.23,759.98,6.56,3.27,3.29,5.32,0.00,20.86,36.72,27384,40607,27550,38,32223,34413,0
2020-08-24,18:36:42.68475,ERR,ErrD,1,3070,29,5359,100,85,98,27,0.00,7670,10363,1106,0,3.54,3.47,0.00,20.98,6.53,1.23,759.98,6.56,3.27,3.29,5.32,0.00,20.56,36.94,29112,41792,23811,38,33521,34477,0
2020-08-24,18:36:42.68676,ERR,ErrD,1,3070,29,5381,100,0,99,27,0.00,8317,15928,950,0,3.58,3.51,0.00,20.90,6.52,1.04,779.09,6.55,3.27,3.28,5.32,0.00,20.62,36.98,34244,37158,24597,37,28528,39609,1
2020-08-24,18:36:42.68878,ERR,ErrD,1,3070,29,5403,100,86,99,27,0.00,8315,10325,778,0,3.78,3.82,0.00,21.13,6.55,1.04,779.09,6.55,3.27,3.28,5.32,0.00,21.01,37.10,33988,34328,27172,38,33578,39560,0
2020-08-24,18:36:42.69078,ERR,ErrD,1,3070,29,5425,100,67,99,27,0.00,6908,11097,615,0,3.65,3.65,0.00,21.13,6.49,1.04,779.09,6.55,3.27,3.28,5.32,0.00,20.57,37.04,31745,38233,24149,38,32258,38323,1
2020-08-24,18:36:43.69279,ERR,ErrD,1,3070,29,5447,100,0,95,28,0.00,7930,14388,451,0,3.66,3.69,0.00,21.04,6.53,0.44,787.13,6.54,3.25,3.29,5.32,0.00,20.25,37.22,32554,40965,26209,37,33444,39598,0
2020-08-24,18:36:43.69478,ERR,ErrD,1,3070,29,5469,100,0,93,28,0.00,7930,17883,286,0,3.79,3.83,0.00,20.93,6.56,0.44,787.13,6.54,3.25,3.29,5.32,0.00,20.67,37.29,29611,34427,24079,38,32256,43353,1
2020-08-24,18:36:43.69679,ERR,ErrD,1,3070,29,5491,100,0,94,28,0.00,6906,17883,213,0,3.46,3.40,0.00,20.96,6.55,0.85,802.87,6.54,3.25,3.29,5.32,0.00,20.94,37.26,31370,39197,23385,38,30957,38268,1
2020-08-24,18:36:43.69879,ERR,ErrD,1,3070,29,5513,100,86,94,28,0.00,8318,10323,377,0,3.49,3.42,0.00,21.08,6.53,0.85,802.87,6.54,3.25,3.29,5.32,0.00,20.49,37.01,35929,34950,25417,37,33651,42155,1
2020-08-24,18:36:43.70079,ERR,ErrD,1,3070,29,5535,100,17,96,28,0.00,5203,13071,541,0,3.43,3.39,0.00,21.08,6.54,0.85,802.87,6.55,3.26,3.29,5.32,0.00,20.74,37.55,33542,40319,23118,38,33494,39655,1
2020-08-24,18:36:44.70279,ERR,ErrD,1,3070,29,5556,100,0,99,19,0.00,5203,17541,705,0,3.54,3.46,0.00,20.93,6.55,0.28,808.12,6.55,3.26,3.29,5.32,0.00,20.60,37.55,29374,38378,24258,38,31064,30581,0
2020-08-24,18:36:44.70479,ERR,ErrD,1,3068,59,5578,100,0,98,19,0.00,5203,18176,869,0,3.60,3.53,0.00,20.96,6.52,0.28,808.12,6.55,3.26,3.29,5.32,0.00,20.64,37.66,30514,33668,27702,38,32334,34378,1
2020-08-24,18:36:44.70680,ERR,ErrD,1,3068,59,5600,100,100,98,22,0.00,8616,9500,1032,0,3.42,3.39,0.00,20.99,6.56,2.10,847.67,6.56,3.27,3.29,5.32,0.00,20.97,37.53,27094,37728,32032,38,28557,33319,0
2020-08-24,18:36:44.70882,ERR,ErrD,1,3068,59,5623,100,14,98,22,0.00,4923,13225,1204,0,3.48,3.41,0.00,21.00,6.55,2.10,847.67,6.56,3.27,3.29,5.32,0.00,20.54,37.67,25860,39450,32045,38,35979,34377,1
2020-08-24,18:36:44.71083,ERR,ErrD,1,3068,59,5645,100,14,99,22,0.00,4923,13225,1368,0,3.44,3.38,0.00,20.99,6.54,2.10,847.67,6.56,3.27,3.29,5.32,0.00,20.89,37.69,27817,35478,35325,38,31066,30678,1
2020-08-24,18:36:45.71283,ERR,ErrD,1,3068,59,5667,100,12,100,22,0.00,4905,13272,1524,0,3.65,3.70,0.00,21.02,6.56,0.93,865.27,6.56,3.27,3.29,5.32,0.00,20.71,37.75,32536,38155,31077,38,32345,39587,0
2020-08-24,18:36:45.71483,ERR,ErrD,1,3068,59,5689,100,0,100,23,0.00,8329,14263,1688,0,3.46,3.41,0.00,20.94,6.53,0.93,865.27,6.55,3.27,3.28,5.32,0.00,20.89,37.86,34226,39038,24984,38,28468,40940,0
2020-08-24,18:36:45.71684,ERR,ErrD,1,3068,59,5711,100,86,99,23,0.00,8340,10322,1762,0,3.54,3.46,0.00,20.94,6.54,1.71,898.10,6.55,3.27,3.28,5.32,0.00,20.72,37.93,32915,37324,24221,38,30967,39522,1
2020-08-24,18:36:45.71884,ERR,ErrD,1,3068,59,5733,100,52,98,23,0.00,6906,11701,1597,0,3.42,3.39,0.00,20.93,6.54,1.71,898.10,6.55,3.27,3.28,5.32,0.00,20.61,37.52,30530,36286,24942,38,28535,43425,1
2020-08-24,18:36:45.72085,ERR,ErrD,1,3068,59,5755,100,52,98,23,0.00,6906,11701,1434,0,3.62,3.53,0.00,20.95,6.50,1.71,898.10,6.54,3.26,3.28,5.32,0.00,20.64,37.91,31851,37117,27590,38,33556,36966,0
2020-08-24,18:36:46.72285,ERR,ErrD,1,3068,59,5776,100,0,98,19,0.00,6906,18791,1277,0,3.49,3.41,0.00,20.94,6.51,0.31,904.08,6.54,3.26,3.28,5.32,0.00,20.50,38.03,29274,33538,24185,38,29788,36995,0
2020-08-24,18:36:46.72486,ERR,ErrD,1,2995,118,5798,100,0,98,25,0.00,6906,18791,1106,0,3.64,3.57,0.00,21.10,6.49,0.31,904.08,6.54,3.26,3.28,5.32,0.00,20.65,38.19,26729,37815,29094,38,28492,29296,1
2020-08-24,18:36:46.72687,ERR,ErrD,1,2995,118,5820,100,86,99,25,0.00,6922,10323,942,0,3.61,3.61,0.00,21.04,6.51,0.42,912.21,6.54,3.26,3.28,5.32,0.00,20.82,38.36,27469,34218,26600,38,32249,36919,0
2020-08-24,18:36:46.72887,ERR,ErrD,1,2995,118,5842,100,28,99,25,0.00,5207,12667,778,0,3.56,3.49,0.00,20.92,6.56,0.42,912.21,6.55,3.27,3.28,5.32,0.00,20.80,38.30,28980,37571,30619,38,30915,31902,0
2020-08-24,18:36:46.73088,ERR,ErrD,1,2995,118,5864,100,0,98,25,0.00,5207,17871,615,0,3.44,3.39,0.00,20.96,6.55,0.42,912.21,6.55,3.27,3.28,5.32,0.00,20.77,38.59,31222,37906,31945,38,33479,36949,1
2020-08-24,18:36:47.73289,ERR,ErrD,1,2995,118,5886,100,0,99,19,0.00,5207,17871,451,0,3.49,3.41,0.00,21.02,6.53,0.32,918.52,6.55,3.27,3.28,5.32,0.00,20.61,37.88,35324,40345,30137,38,34785,39656,0
2020-08-24,18:36:47.73489,ERR,ErrD,1,2995,118,5908,100,86,99,19,0.00,8335,10322,286,0,3.43,3.39,0.00,20.91,6.55,0.32,918.52,6.55,3.27,3.28,5.32,0.00,20.76,38.64,36258,33421,28937,38,31006,37025,0
2020-08-24,18:36:47.73690,ERR,ErrD,1,2995,118,5931,100,0,99,19,0.00,8316,13800,221,0,3.55,3.55,0.00,21.01,6.54,0.54,929.17,6.56,3.26,3.30,5.32,0.00,20.79,38.62,32594,33512,26660,38,28549,44687,0
2020-08-24,18:36:47.73890,ERR,ErrD,1,2995,118,5953,100,0,100,19,0.00,8315,13800,377,0,4.31,4.11,0.00,20.87,6.52,0.54,929.17,6.56,3.26,3.30,5.32,0.00,20.55,38.66,31919,36934,21046,38,27155,38347,0
2020-08-24,18:36:47.74090,ERR,ErrD,1,2995,118,5975,100,0,99,19,0.00,8315,13800,541,0,4.50,4.36,0.00,20.99,6.56,0.54,929.17,6.56,3.26,3.30,5.32,0.00,21.04,38.60,34906,39718,19000,38,31015,42115,0
2020-08-24,18:36:48.74290,ERR,ErrD,1,2995,118,5997,100,0,99,19,0.00,5206,13800,705,0,4.73,4.62,0.00,20.81,6.53,0.44,937.81,6.57,3.27,3.30,5.32,0.00,20.80,38.87,29843,39288,20568,38,32251,35620,1
2020-08-24,18:36:48.74490,ERR,ErrD,1,3396,119,6019,100,86,99,19,0.00,8311,10324,869,0,4.55,4.49,0.00,20.89,6.55,0.44,937.81,6.57,3.27,3.30,5.32,0.00,20.63,40.08,31223,37122,19479,38,27139,39679,1
2020-08-24,18:36:48.74691,ERR,ErrD,1,3396,119,6041,100,0,98,19,0.00,8311,18124,1040,0,4.76,4.64,0.00,20.86,6.55,0.42,946.18,6.57,3.27,3.30,5.32,0.00,20.82,40.79,33534,39104,22682,38,29690,34276,0
2020-08-24,18:36:48.74891,ERR,ErrD,1,3396,119,6063,100,0,98,19,0.00,6903,18124,1196,0,4.67,4.57,0.00,20.92,6.53,0.42,946.18,6.57,3.27,3.30,5.32,0.00,20.86,38.87,30501,35373,23604,38,29663,39483,1
2020-08-24,18:36:48.75092,ERR,ErrD,1,3396,119,6085,100,0,99,20,0.00,6628,18124,1360,0,4.98,4.93,0.00,20.89,6.56,0.42,946.18,6.57,3.27,3.30,5.32,0.00,20.87,38.94,26255,34697,22015,38,27204,34506,1
2020-08-24,18:36:49.75292,ERR,ErrD,1,3396,119,6107,100,86,98,20,0.00,8337,10323,1531,0,4.88,4.76,0.00,20.96,6.52,1.12,968.70,6.57,3.27,3.30,5.32,0.00,20.79,39.06,26937,40567,19353,38,28417,38328,1
2020-08-24,18:36:49.75493,ERR,ErrD,1,3396,119,6129,100,78,99,20,0.00,8322,10647,1696,0,4.76,4.63,0.00,21.04,6.56,1.12,968.70,6.57,3.27,3.30,5.32,0.00,20.78,38.64,30391,34157,23789,38,33515,33212,1
2020-08-24,18:36:49.75693,ERR,ErrD,1,3396,119,6151,100,78,99,20,0.00,6903,10647,1769,0,4.98,4.93,0.00,20.95,6.57,0.28,974.29,6.56,3.28,3.28,5.32,0.00,20.89,39.19,31178,37644,20373,38,28441,31910,1
2020-08-24,18:36:49.75894,ERR,ErrD,1,3396,119,6173,100,0,99,24,0.00,8316,14377,1606,0,4.81,4.69,0.00,20.86,6.53,0.28,974.29,6.56,3.28,3.28,5.32,0.00,20.78,39.23,26548,36156,21422,38,32310,37058,1
2020-08-24,18:36:49.76094,ERR,ErrD,1,3396,119,6195,100,0,98,24,0.00,8312,18180,1434,0,5.14,5.07,0.00,21.24,6.53,0.28,974.29,6.56,3.28,3.28,5.32,0.00,20.69,41.45,33259,36536,23742,38,28431,34503,0
2020-08-24,18:36:50.76295,ERR,ErrD,1,3396,119,6217,100,86,98,24,0.00,8315,10347,1270,0,4.93,4.86,0.00,21.00,6.54,0.67,987.89,6.56,3.28,3.28,5.32,0.00,21.03,39.40,32331,33214,20018,38,28450,31912,1
2020-08-24,18:36:50.76496,ERR,ErrD,1,4350,476,6239,100,34,97,24,0.00,5206,12413,1106,0,4.75,4.63,0.00,21.11,6.53,0.67,987.89,6.56,3.27,3.29,5.32,0.00,20.58,39.54,32502,38560,18970,38,27223,36806,1
2020-08-24,18:36:50.76697,ERR,ErrD,1,4350,476,6261,100,0,96,20,0.00,5206,17988,942,0,5.02,4.97,0.00,21.13,6.56,0.27,993.39,6.56,3.27,3.29,5.32,0.00,20.75,39.53,35484,37876,20415,38,32318,36962,1
2020-08-24,18:36:50.76897,ERR,ErrD,1,4350,476,6283,100,0,97,20,0.00,5206,17988,778,0,4.90,4.81,0.00,20.90,6.56,0.27,993.39,6.56,3.27,3.29,5.32,0.00,20.60,39.55,28975,35722,22697,38,30913,32097,1
2020-08-24,18:36:50.77099,ERR,ErrD,1,4350,476,6305,100,86,98,20,0.00,8334,10336,615,0,5.07,4.98,0.00,21.01,6.45,0.27,993.39,6.55,3.26,3.29,5.32,0.00,20.65,39.74,32825,38323,19470,38,28465,34339,0
2020-08-24,18:36:51.77300,ERR,ErrD,1,4350,476,6327,100,0,97,20,0.00,7952,18089,442,0,4.89,4.77,0.00,20.99,6.56,0.87,1011.33,6.55,3.26,3.29,5.32,0.00,20.75,39.74,29178,37722,22482,38,29670,35731,1
2020-08-24,18:36:51.77501,ERR,ErrD,1,4350,476,6349,100,0,98,19,0.00,6908,18089,286,0,5.20,5.24,0.00,20.99,6.55,0.87,1011.33,6.55,3.26,3.29,5.32,0.00,20.84,39.81,31769,40831,21177,38,27091,31951,0
2020-08-24,18:36:51.77701,ERR,ErrD,1,4350,476,6371,100,0,99,20,0.00,6903,18089,213,0,4.95,4.91,0.00,21.07,6.52,1.22,1036.63,6.55,3.26,3.29,5.32,0.00,20.74,39.98,28924,34773,19663,38,32351,31855,0
2020-08-24,18:36:51.77902,ERR,ErrD,1,4350,476,6393,100,0,98,20,0.00,6903,18089,385,0,5.23,5.26,0.00,20.95,6.53,1.22,1036.63,6.56,3.27,3.29,5.32,0.00,20.76,40.07,33135,36082,22987,38,29661,33362,0
2020-08-24,18:36:51.78102,ERR,ErrD,1,4350,476,6415,100,86,99,20,0.00,8335,10318,549,0,5.02,4.95,0.00,20.97,6.49,1.22,1036.63,6.56,3.27,3.29,5.32,0.00,20.90,40.19,30660,39113,21435,38,28506,30637,1
2020-08-24,18:36:52.78303,ERR,ErrD,1,4350,476,6437,100,61,99,20,0.00,6911,11324,705,0,5.07,4.99,0.00,20.94,6.48,0.40,1044.97,6.56,3.27,3.29,5.32,0.00,20.79,41.31,32066,37068,24192,38,25871,36994,1
2020-08-24,18:36:52.78504,ERR,ErrD,1,4469,983,6459,100,28,97,22,0.00,6957,12656,869,0,4.92,4.84,0.00,20.95,6.55,0.40,1044.97,6.56,3.27,3.29,5.32,0.00,20.88,40.29,31130,34708,21553,38,27157,34342,1
2020-08-24,18:36:52.78704,ERR,ErrD,1,4469,983,6481,100,0,96,22,0.00,6957,17987,1040,0,5.00,4.94,0.00,21.07,6.54,0.30,1051.24,6.56,3.27,3.29,5.32,0.00,20.96,40.38,34349,36491,22941,38,28493,31825,1
2020-08-24,18:36:52.78904,ERR,ErrD,1,4469,983,6503,100,86,96,22,0.00,8318,10322,1204,0,4.82,4.70,0.00,20.99,6.50,0.30,1051.24,6.56,3.27,3.29,5.32,0.00,20.95,40.55,30469,41825,20539,38,34796,34363,1
2020-08-24,18:36:52.79104,ERR,ErrD,1,4469,983,6525,100,0,96,22,0.00,8312,14209,1368,0,5.21,5.23,0.00,21.00,6.52,0.30,1051.24,6.56,3.27,3.29,5.32,0.00,20.77,40.67,29381,40201,26148,38,25856,38135,1
2020-08-24,18:36:53.79304,ERR,ErrD,1,4469,983,6547,100,0,98,19,0.00,5207,14209,1524,0,4.90,4.82,0.00,20.88,6.56,0.28,1057.28,6.56,3.27,3.29,5.32,0.00,21.07,40.91,32292,38716,26481,38,27015,29485,1
2020-08-24,18:36:53.79505,ERR,ErrD,1,4469,983,6569,100,0,98,27,0.00,5207,18222,1696,0,5.22,5.26,0.00,20.83,6.56,0.28,1057.28,6.56,3.27,3.29,5.32,0.00,20.56,40.71,34249,39340,23725,38,28433,30305,1
2020-08-24,18:36:53.79705,ERR,ErrD,1,4469,983,6591,100,0,99,27,0.00,5207,18222,1762,0,5.13,5.04,0.00,20.87,6.52,0.36,1065.07,6.56,3.27,3.29,5.32,0.00,20.81,41.05,36090,37408,28186,38,24660,36687,0
2020-08-24,18:36:53.79905,ERR,ErrD,1,4469,983,6613,100,86,99,27,0.00,8320,10345,1597,0,5.35,5.36,0.00,21.00,6.55,0.36,1065.07,6.56,3.26,3.30,5.32,0.00,20.74,41.10,35154,39957,25533,38,30861,28321,0
2020-08-24,18:36:53.80105,ERR,ErrD,1,4469,983,6635,100,28,99,27,0.00,8315,22889,1442,0,5.24,5.24,0.00,20.91,6.52,0.36,1065.07,6.56,3.26,3.30,5.32,0.00,20.98,41.14,32902,39005,22159,38,24566,26830,0
2020-08-24,18:36:54.80306,ERR,ErrD,1,4469,983,6657,100,28,99,26,0.00,7978,22889,1270,0,5.44,5.46,0.00,20.94,6.51,0.42,1074.17,6.56,3.26,3.30,5.32,0.00,20.78,41.14,33791,41467,25300,38,20810,40620,1
2020-08-24,18:36:54.80507,ERR,ErrD,1,4591,1371,6679,100,28,99,26,0.00,6905,22889,1106,0,5.14,5.05,0.00,20.90,6.54,0.42,1074.17,6.56,3.26,3.30,5.32,0.00,21.02,41.33,35181,38265,24954,38,24668,35623,1
2020-08-24,18:36:54.80708,ERR,ErrD,1,4591,1371,6701,100,100,99,26,0.00,8608,9500,942,0,5.38,5.41,0.00,20.91,6.54,1.27,1101.76,6.56,3.26,3.30,5.32,0.00,20.93,42.35,31388,38979,26496,38,24552,22042,1
2020-08-24,18:36:54.80908,ERR,ErrD,1,4591,1371,6723,100,0,98,26,0.00,6903,17956,778,0,5.09,5.02,0.00,20.94,6.52,1.27,1101.76,6.56,3.26,3.30,5.32,0.00,21.04,41.46,32769,40169,23444,38,27145,33202,1
2020-08-24,18:36:54.81109,ERR,ErrD,1,4591,1371,6745,100,0,98,20,0.00,6903,17956,615,0,5.30,5.34,0.00,20.95,6.56,1.27,1101.76,6.56,3.26,3.30,5.32,0.00,20.81,41.60,32575,39086,27576,38,28310,30965,0
2020-08-24,18:36:55.81310,ERR,ErrD,1,4591,1371,6767,100,0,98,20,0.00,6903,17956,451,0,5.01,4.94,0.00,21.01,6.56,0.47,1111.99,6.56,3.27,3.29,5.32,0.00,20.89,41.51,27054,40097,24310,38,30825,35716,0
2020-08-24,18:36:55.81511,ERR,ErrD,1,4591,1371,6789,100,0,97,20,0.00,6903,18119,279,0,5.01,4.94,0.00,21.03,6.55,0.47,1111.99,6.56,3.27,3.29,5.32,0.00,21.06,41.66,33038,38514,22611,38,23359,34153,1
2020-08-24,18:36:55.81712,ERR,ErrD,1,4591,1371,6811,100,86,98,20,0.00,8338,10339,221,0,5.48,5.49,0.00,20.94,6.48,1.78,1150.97,6.56,3.27,3.29,5.32,0.00,21.04,41.92,34411,38990,25403,38,23322,38020,0
2020-08-24,18:36:55.81912,ERR,ErrD,1,4591,1371,6833,100,23,98,19,0.00,5206,12852,377,0,5.27,5.32,0.00,21.02,6.56,1.78,1150.97,6.56,3.27,3.29,5.32,0.00,21.22,41.78,32001,40206,23891,38,19558,35569,1
2020-08-24,18:36:55.82112,ERR,ErrD,1,4591,1371,6855,100,0,99,23,0.00,8317,14126,541,0,5.35,5.36,0.00,21.02,6.49,1.78,1150.97,6.55,3.26,3.29,5.32,0.00,21.06,41.90,31757,34275,25687,38,16961,31884,1
2020-08-24,18:36:56.82312,ERR,ErrD,1,4591,1371,6877,100,0,99,23,0.00,6901,18136,713,0,5.22,5.25,0.00,20.98,6.55,1.32,1180.02,6.55,3.26,3.29,5.32,0.00,20.89,42.14,31828,38699,23102,38,28369,30851,1
2020-08-24,18:36:56.82512,ERR,ErrD,1,4705,1757,6899,100,0,99,23,0.00,6901,18136,876,0,5.18,5.18,0.00,21.03,6.53,1.32,1180.02,6.55,3.26,3.29,5.32,0.00,20.92,42.02,30909,42370,23060,38,33349,32161,1
2020-08-24,18:36:56.82713,ERR,ErrD,1,4705,1757,6921,100,37,99,23,0.00,5205,12294,1032,0,5.36,5.38,0.00,20.98,6.51,0.27,1185.97,6.52,3.24,3.28,5.32,0.00,20.82,42.23,32622,38963,26022,38,33268,24592,1
2020-08-24,18:36:56.82912,ERR,ErrD,1,4705,1757,6943,100,17,99,22,0.00,5205,13088,1196,0,5.57,5.52,0.00,21.14,6.53,0.27,1185.97,6.52,3.24,3.28,5.32,0.00,20.95,42.29,32227,38200,22990,38,26956,32075,0
2020-08-24,18:36:56.83112,ERR,ErrD,1,4705,1757,6964,100,0,98,22,0.00,5205,17947,1360,0,5.18,5.15,0.00,20.99,6.51,0.27,1185.97,6.52,3.24,3.28,5.32,0.00,20.80,42.51,30661,40436,22025,38,21999,40688,1
2020-08-24,18:36:57.83313,ERR,ErrD,1,4705,1757,6986,100,100,97,22,0.00,5205,19213,1531,0,5.26,5.28,0.00,21.05,6.54,0.64,1200.29,6.52,3.24,3.28,5.32,0.00,20.90,42.54,28327,40967,22350,38,27122,40671,0
2020-08-24,18:36:57.83513,ERR,ErrD,1,4705,1757,7008,100,93,96,22,0.00,8604,10041,1696,0,5.54,5.52,0.00,21.09,6.51,0.64,1200.29,6.54,3.26,3.28,5.32,0.00,21.03,42.79,33271,40972,26363,38,20808,39213,0
2020-08-24,18:36:57.83714,ERR,ErrD,1,4705,1757,7030,100,30,96,19,0.00,5202,12551,1769,0,5.51,5.50,0.00,20.97,6.51,0.95,1221.60,6.54,3.26,3.28,5.32,0.00,20.75,42.96,32733,45105,25832,38,25733,29650,1
2020-08-24,18:36:57.83916,ERR,ErrD,1,4705,1757,7052,100,86,96,40,0.00,8318,10326,1597,0,5.31,5.35,0.00,21.03,6.54,0.95,1221.60,6.54,3.26,3.28,5.32,0.00,20.92,42.93,35097,40275,23799,38,28360,40681,1
2020-08-24,18:36:57.84116,ERR,ErrD,1,4705,1757,7074,100,86,98,40,0.00,6901,10326,1434,0,5.49,5.52,0.00,21.23,6.52,0.95,1221.60,6.54,3.26,3.28,5.32,0.00,21.05,43.25,30195,40033,27868,38,29702,38305,0
2020-08-24,18:36:58.84317,ERR,ErrD,1,4705,1757,7096,100,29,99,40,0.00,6610,12593,1270,0,5.41,5.41,0.00,21.08,6.54,1.43,1254.03,6.55,3.26,3.29,5.32,0.00,21.06,43.91,30159,40686,23081,38,22131,39429,1
2020-08-24,18:36:58.84518,ERR,ErrD,1,4767,2085,7118,100,86,99,40,0.00,8318,10323,1106,0,5.22,5.26,0.00,21.12,6.55,1.43,1254.03,6.55,3.26,3.29,5.32,0.00,21.18,43.52,34871,39846,23428,38,19628,41795,1
2020-08-24,18:36:58.84717,ERR,ErrD,1,4767,2085,7140,100,67,100,20,0.00,6915,11085,942,0,5.81,5.64,0.00,21.08,6.54,1.78,1294.60,6.55,3.26,3.29,5.32,0.00,21.02,43.68,28759,39362,27183,38,19669,44215,0
2020-08-24,18:36:58.84917,ERR,ErrD,1,4767,2085,7162,100,66,100,20,0.00,6908,11129,778,0,5.92,5.73,0.00,21.06,6.53,1.78,1294.60,6.56,3.26,3.30,5.32,0.00,21.06,43.76,32798,35687,26011,38,21052,45634,1
2020-08-24,18:36:58.85118,ERR,ErrD,1,4767,2085,7184,100,60,100,20,0.00,5204,11354,615,0,5.80,5.64,0.00,20.91,6.52,1.78,1294.60,6.56,3.26,3.30,5.32,0.00,20.91,43.88,32441,41769,27252,38,24677,40432,1
2020-08-24,18:36:59.85319,ERR,ErrD,1,4767,2085,7206,100,86,99,20,0.00,8330,10326,451,0,6.26,6.17,0.00,21.19,6.51,0.69,1310.43,6.56,3.26,3.30,5.32,0.00,21.13,43.62,39546,37467,27739,38,28302,32159,1
2020-08-24,18:36:59.85519,ERR,ErrD,1,4767,2085,7228,100,51,98,19,0.00,6908,11736,286,0,6.28,6.18,0.00,21.07,6.53,0.69,1310.43,6.56,3.26,3.30,5.32,0.00,21.06,43.52,33525,26933,34540,38,32056,34555,0
2020-08-24,18:36:59.85720,ERR,ErrD,1,4767,2085,7250,100,0,97,20,0.00,6905,14121,213,0,6.51,6.39,0.00,21.19,6.53,0.87,1330.52,6.52,3.25,3.27,5.32,0.00,20.87,44.26,31404,29889,33973,38,23477,36844,1
2020-08-24,18:36:59.85921,ERR,ErrD,1,4767,2085,7272,100,0,96,20,0.00,6905,16600,385,0,6.64,6.50,0.00,21.25,6.46,0.87,1330.52,6.52,3.25,3.27,5.32,0.00,20.99,43.56,36016,34644,28339,38,28394,33471,0
2020-08-24,18:36:59.86121,ERR,ErrD,1,4767,2085,7294,100,0,97,20,0.00,6903,16600,549,0,6.69,6.53,0.00,21.18,6.49,0.87,1330.52,6.52,3.25,3.27,5.32,0.00,20.98,44.46,33894,35173,30509,38,27202,30784,1
2020-08-24,18:37:00.86321,ERR,ErrD,1,4767,2085,7316,100,86,98,20,0.00,6902,10324,705,0,6.73,6.65,0.00,21.08,6.50,0.51,1342.37,6.52,3.25,3.27,5.32,0.00,20.94,44.58,30426,31838,29255,38,27135,34214,0
2020-08-24,18:37:00.86522,ERR,ErrD,1,5596,3184,7338,100,63,98,20,0.00,5206,11258,869,0,6.77,6.67,0.00,21.14,6.54,0.51,1342.37,6.52,3.25,3.27,5.32,0.00,21.13,44.93,36117,33629,29958,38,30954,36715,1
2020-08-24,18:37:00.86723,ERR,ErrD,1,5596,3184,7360,100,0,99,20,0.00,5206,18169,1040,0,6.79,6.73,0.00,21.16,6.53,1.29,1372.58,6.52,3.25,3.27,5.32,0.00,20.93,45.54,36162,32664,29946,38,28476,39422,1
2020-08-24,18:37:00.86923,ERR,ErrD,1,5596,3184,7382,100,0,99,20,0.00,5206,18169,1204,0,6.86,6.82,0.00,21.14,6.55,1.29,1372.58,6.52,3.25,3.27,5.32,0.00,21.20,45.51,34004,31966,33074,38,32234,33346,1
2020-08-24,18:37:00.87123,ERR,ErrD,1,5596,3184,7404,100,86,99,20,0.00,8342,10324,1360,0,6.85,6.81,0.00,21.00,6.53,1.29,1372.58,6.55,3.26,3.29,5.32,0.00,21.12,45.23,32689,30619,33978,38,33630,34655,1
2020-08-24,18:37:01.87324,ERR,ErrD,1,5596,3184,7427,100,0,99,25,0.00,6905,15735,1531,0,6.89,6.87,0.00,21.01,6.52,0.83,1391.95,6.55,3.26,3.29,5.32,0.00,21.23,45.21,31788,34927,30065,38,29861,30486,0
2020-08-24,18:37:01.87525,ERR,ErrD,1,5596,3184,7449,100,0,100,25,0.00,6905,15735,1696,0,6.78,6.68,0.00,20.89,6.51,0.83,1391.95,6.55,3.26,3.29,5.32,0.00,20.94,45.44,31383,32236,29616,38,29804,40602,1
2020-08-24,18:37:01.87724,ERR,ErrD,1,5596,3184,7471,100,0,99,25,0.00,6905,15735,1762,0,6.92,6.88,0.00,20.40,6.54,0.79,1410.65,6.54,3.25,3.29,5.32,0.00,21.18,45.55,31508,33931,35316,38,37166,37910,1
2020-08-24,18:37:01.87925,ERR,ErrD,1,5596,3184,7493,100,0,97,25,0.00,6903,16410,1597,0,6.92,6.90,0.00,20.93,6.53,0.79,1410.65,6.54,3.25,3.29,5.32,0.00,21.23,45.02,32056,34132,34058,38,42420,35377,1
2020-08-24,18:37:01.88125,ERR,ErrD,1,5596,3184,7514,100,86,92,20,0.00,8327,10321,1442,0,6.96,6.93,0.00,20.58,6.53,0.79,1410.65,6.54,3.25,3.29,5.32,0.00,21.29,45.97,30847,34791,32553,38,37447,31427,1
2020-08-24,18:37:02.88325,ERR,ErrD,1,5596,3184,7536,100,0,86,21,0.00,6902,18580,1277,0,6.96,6.96,1.30,20.28,6.56,0.35,1418.90,6.54,3.25,3.29,5.32,0.00,21.19,46.13,32947,34820,33692,38,27156,23277,0
2020-08-24,18:37:02.88526,ERR,ErrD,1,7270,6972,7558,100,0,81,21,0.00,6902,18580,1122,0,6.88,6.94,1.30,20.00,6.54,0.35,1418.90,6.57,3.27,3.30,5.32,0.00,20.74,46.36,28455,35077,33511,38,29763,28894,1
2020-08-24,18:37:02.88727,ERR,ErrD,1,7270,6972,7580,100,0,81,21,0.00,6902,18580,950,0,6.97,6.99,1.74,19.68,6.63,0.00,1418.90,6.57,3.27,3.30,5.32,0.00,21.08,46.84,29427,36228,34534,38,30046,32128,0
2020-08-24,18:37:02.88927,ERR,ErrD,1,7270,6972,7602,100,51,80,21,0.00,6903,11740,778,0,7.12,7.04,1.74,18.82,6.73,0.00,1418.90,6.57,3.27,3.30,5.32,0.00,21.20,46.68,31776,32209,33847,38,33649,29757,0
2020-08-24,18:37:02.89128,ERR,ErrD,1,7270,6972,7624,100,50,86,21,0.00,6903,11762,622,0,7.64,7.08,1.74,18.47,6.76,0.00,1418.90,8.13,6.91,1.23,5.33,0.00,21.08,47.01,32829,33846,30452,38,32486,35646,0
2020-08-24,18:37:03.89328,ERR,ErrD,1,7270,6972,7646,100,25,93,21,0.00,5205,12756,459,0,7.91,7.07,2.74,18.46,6.77,0.00,1418.90,8.13,6.91,1.23,5.33,0.00,21.01,46.80,31783,32996,33678,38,29498,32789,0
2020-08-24,18:37:03.89528,ERR,ErrD,1,7270,6972,7668,100,12,97,21,0.00,4919,13283,295,0,8.11,7.11,2.74,18.53,6.79,0.00,1418.90,8.13,6.91,1.23,5.32,0.00,21.05,47.66,33746,34218,34368,38,28018,32485,0
2020-08-24,18:37:03.89728,ERR,ErrD,1,7270,6972,7690,100,0,98,21,0.00,4919,17832,213,0,9.10,7.09,2.82,18.41,6.70,0.00,1418.90,8.13,6.91,1.23,5.32,0.00,21.32,48.26,33710,31989,33755,38,28246,35282,1
2020-08-24,18:37:03.89928,ERR,ErrD,1,7270,6972,7712,100,50,99,21,0.00,6921,11765,377,0,9.10,7.06,2.82,18.67,6.72,0.00,1418.90,6.65,3.31,3.34,5.32,0.00,21.03,48.11,33126,32326,32150,38,29726,31703,0
2020-08-24,18:37:03.90129,ERR,ErrD,1,7270,6972,7734,100,50,99,21,0.00,6918,11765,533,0,9.46,7.07,2.82,18.48,6.76,0.00,1418.90,6.65,3.31,3.34,5.33,0.00,21.28,48.16,33639,32360,33185,38,30770,31537,1
2020-08-24,18:37:04.90328,ERR,ErrD,1,7270,6972,7756,100,14,98,20,0.00,6619,13207,696,0,9.91,7.07,2.70,18.63,6.72,0.00,1418.90,6.65,3.31,3.34,5.32,0.00,21.15,49.42,31571,32030,33469,38,23466,42203,1
2020-08-24,18:37:04.90528,ERR,ErrD,1,7270,6972,7778,100,0,98,20,0.00,6619,17572,869,0,10.60,7.11,2.70,18.51,6.76,0.00,1418.90,6.65,3.31,3.34,5.33,0.00,21.28,49.70,31711,32761,32767,38,29528,30831,0
2020-08-24,18:37:04.90728,ERR,ErrD,1,10332,10302,7800,100,100,97,20,0.00,8620,9500,1032,0,10.86,7.11,2.07,18.56,6.80,0.00,1418.90,8.13,6.91,1.23,5.32,0.00,21.25,49.72,33185,32728,31562,38,27863,33121,0
2020-08-24,18:37:04.90928,ERR,ErrD,1,10332,10302,7822,100,29,97,21,0.00,5208,12598,1187,0,10.92,7.09,2.07,18.60,6.76,0.00,1418.90,8.13,6.91,1.23,5.32,0.00,21.09,50.75,32357,34530,33228,38,32032,32759,1
2020-08-24,18:37:04.91128,ERR,ErrD,1,10332,10302,7844,100,29,97,21,0.00,5208,12598,1351,0,10.82,7.09,2.07,18.79,6.81,0.00,1418.90,8.13,6.91,1.23,5.33,0.00,21.04,51.32,32446,32165,32517,38,31438,33104,1
2020-08-24,18:37:05.91329,ERR,ErrD,1,10332,10302,7866,100,0,97,21,0.00,5208,18011,1524,0,10.82,7.09,2.82,18.55,6.72,0.00,1418.90,10.18,6.91,3.27,5.33,0.00,21.40,52.55,33076,31820,32332,38,32013,32716,0
2020-08-24,18:37:05.91529,ERR,ErrD,1,10332,10302,7888,100,0,96,21,0.00,5208,18011,1688,0,10.53,7.10,2.82,18.85,6.75,0.00,1418.90,10.18,6.91,3.27,5.33,0.00,21.55,53.00,32596,34563,34014,38,27482,33273,1
2020-08-24,18:37:05.91730,ERR,ErrD,1,10332,10302,7910,100,51,97,21,0.00,6922,11741,1769,0,10.33,7.07,2.08,18.63,6.74,0.00,1418.90,10.18,6.91,3.27,5.33,0.00,21.25,53.39,32602,32471,32942,38,31960,31486,1
2020-08-24,18:37:05.91930,ERR,ErrD,1,10332,10302,7932,100,24,97,21,0.00,6903,12805,1614,0,10.38,7.09,2.08,18.71,6.78,0.00,1418.90,10.18,6.91,3.27,5.32,0.00,21.24,53.94,33085,32863,33698,38,27991,33602,0
2020-08-24,18:37:05.92131,ERR,ErrD,1,10332,10302,7954,100,100,98,21,0.00,6902,19830,1442,0,10.03,7.07,2.08,18.66,6.76,0.00,1418.90,6.68,3.33,3.35,5.33,0.00,21.12,54.46,33303,32479,31643,38,23972,34175,1
2020-08-24,18:37:06.92332,ERR,ErrD,1,10332,10302,7976,100,100,99,21,0.00,6902,19830,1277,0,10.14,7.10,2.10,18.86,6.73,0.00,1418.90,6.68,3.33,3.35,5.32,0.00,21.19,55.03,31707,32676,33146,38,29042,34841,0
2020-08-24,18:37:06.92532,ERR,ErrD,1,10332,10302,7998,100,100,98,21,0.00,6924,19830,1113,0,10.27,7.07,2.10,18.72,6.77,0.00,1418.90,6.68,3.33,3.35,5.33,0.00,21.25,55.35,33201,33305,34524,38,24234,32611,1
2020-08-24,18:37:06.92732,ERR,ErrD,1,12312,12312,8020,100,80,98,19,0.00,5244,10553,960,0,10.10,7.12,2.31,18.79,6.79,0.00,1418.90,6.66,3.33,3.33,5.33,0.00,21.34,55.95,31220,32358,32709,38,25658,34317,0
2020-08-24,18:37:06.92932,ERR,ErrD,1,12312,12312,8042,100,0,97,19,0.00,5244,18005,787,0,10.12,7.10,2.31,18.80,6.75,0.00,1418.90,6.66,3.33,3.33,5.33,0.00,21.29,55.41,31575,32767,31727,38,24867,31040,0
2020-08-24,18:37:06.93133,ERR,ErrD,1,12312,12312,8064,100,0,97,19,0.00,5244,18005,622,0,10.32,7.09,2.31,18.69,6.80,0.00,1418.90,6.66,3.33,3.33,5.32,0.00,21.30,56.68,32973,32153,33053,38,24278,31091,1
2020-08-24,18:37:07.93336,ERR,ErrD,1,12312,12312,8086,100,0,97,19,0.00,5244,18005,459,0,10.28,7.08,2.81,18.85,6.75,0.00,1418.90,6.66,3.33,3.33,5.32,0.00,21.39,55.25,32980,33876,33139,38,26746,34073,1
2020-08-24,18:37:07.93537,ERR,ErrD,1,12312,12312,8108,100,86,97,19,0.00,8328,10324,295,0,10.38,7.09,2.81,18.90,6.79,0.00,1418.90,6.68,3.34,3.34,5.32,0.00,21.62,55.63,32678,31882,32966,38,27512,35528,0
2020-08-24,18:37:07.93738,ERR,ErrD,1,12312,12312,8130,100,70,98,20,0.00,6902,10978,205,0,9.70,7.08,2.18,18.95,6.78,0.00,1418.90,6.68,3.34,3.34,5.33,0.00,21.18,58.08,32086,31701,33542,38,24384,34904,0
2020-08-24,18:37:07.93938,ERR,ErrD,1,12312,12312,8152,100,0,99,20,0.00,6901,14457,369,0,10.35,7.10,2.18,19.04,6.78,0.00,1418.90,6.68,3.34,3.34,5.33,0.00,21.40,58.39,33443,33954,33372,38,27374,30802,0
2020-08-24,18:37:07.94139,ERR,ErrD,1,12312,12312,8174,100,0,98,20,0.00,6901,17985,541,0,10.17,7.07,2.18,18.95,6.78,0.00,1418.90,12.23,6.91,5.32,5.33,0.00,21.42,59.07,31518,31093,31692,38,23449,33050,1
2020-08-24,18:37:08.94339,ERR,ErrD,1,12312,12312,8196,100,0,99,21,0.00,6249,17985,705,0,9.67,7.07,2.75,18.81,6.75,0.00,1418.90,12.23,6.91,5.32,5.33,0.00,21.53,59.49,32753,32484,32604,38,21153,33378,0
2020-08-24,18:37:08.94539,ERR,ErrD,1,12312,12312,8218,100,51,99,21,0.00,6926,11743,860,0,8.97,7.10,2.75,18.89,6.80,0.00,1418.90,12.23,6.91,5.32,5.32,0.00,21.60,60.21,32804,31013,32412,38,20828,35424,0
2020-08-24,18:37:08.94740,ERR,ErrD,1,12020,11930,8241,100,51,98,21,0.00,5202,11743,1032,0,9.27,7.10,1.93,19.03,6.77,0.00,1418.90,12.23,6.91,5.32,5.32,0.00,21.65,60.70,33704,31243,34176,38,20127,31060,0
2020-08-24,18:37:08.94941,ERR,ErrD,1,12020,11930,8263,100,51,99,21,0.00,5202,11743,1196,0,8.79,7.07,1.93,18.88,6.74,0.00,1418.90,6.69,3.34,3.35,5.33,0.00,21.55,61.34,33000,33458,33675,38,33518,33215,0
2020-08-24,18:37:08.95141,ERR,ErrD,1,12020,11930,8285,100,51,99,19,0.00,5202,11743,1360,0,9.25,7.11,1.93,18.98,6.77,0.00,1418.90,6.69,3.34,3.35,5.32,0.00,21.56,61.92,31599,32938,33403,38,20870,33193,0
2020-08-24,18:37:09.95342,ERR,ErrD,1,12020,11930,8307,100,86,98,19,0.00,6919,10336,1515,0,9.83,7.10,2.02,19.03,6.74,0.00,1418.90,6.69,3.34,3.35,5.32,0.00,21.47,62.48,33697,33625,31262,38,21871,35280,0
2020-08-24,18:37:09.95543,ERR,ErrD,1,12020,11930,8329,100,100,97,18,0.00,6904,19323,1688,0,9.96,7.13,2.02,18.97,6.81,0.00,1418.90,6.70,3.34,3.36,5.32,0.00,21.67,62.86,31605,32814,31693,38,25860,43589,0
2020-08-24,18:37:09.95743,ERR,ErrD,1,12020,11930,8351,100,100,96,20,0.00,6904,19323,1769,0,9.76,7.07,1.98,18.90,6.77,0.00,1418.90,6.70,3.34,3.36,5.32,0.00,21.45,63.52,31473,34291,32088,38,32780,31160,1
2020-08-24,18:37:09.95943,ERR,ErrD,1,12020,11930,8373,100,100,96,20,0.00,4897,19323,1606,0,10.58,7.09,1.98,18.93,6.80,0.00,1418.90,6.70,3.34,3.36,5.33,0.00,21.46,64.48,32311,29996,34496,38,29896,34272,1
2020-08-24,18:37:09.96144,ERR,ErrD,1,12020,11930,8395,100,100,97,20,0.00,6903,19323,1442,0,10.45,7.11,1.98,18.99,6.75,0.00,1418.90,6.70,3.34,3.36,5.33,0.00,21.38,64.61,33116,32492,31892,38,26246,30752,0
2020-08-24,18:37:10.96343,ERR,ErrD,1,12020,11930,8417,100,93,98,20,0.00,7949,10048,1277,0,10.57,7.09,2.35,18.99,6.73,0.00,1418.90,6.69,3.35,3.34,5.32,0.00,21.57,65.13,32863,32329,33832,38,26923,34069,1
2020-08-24,18:37:10.96543,ERR,ErrD,1,12020,11930,8439,100,59,99,19,0.00,6901,11402,1113,0,10.52,7.12,2.35,19.02,6.75,0.00,1418.90,6.69,3.35,3.34,5.33,0.00,21.70,65.51,33003,31335,32217,38,24694,32280,0
2020-08-24,18:37:10.96743,ERR,ErrD,1,11764,11704,8461,100,59,100,19,0.00,6901,11418,950,0,11.11,7.09,1.93,18.97,6.78,0.00,1418.90,6.69,3.35,3.34,5.33,0.00,21.75,65.90,32397,31687,32720,38,23708,31672,0
2020-08-24,18:37:10.96943,ERR,ErrD,1,11764,11704,8483,100,20,99,28,0.00,4917,12966,787,0,10.94,7.08,1.93,18.99,6.74,0.00,1418.90,6.68,3.33,3.35,5.32,0.00,21.31,66.22,31444,33601,33023,38,26502,35588,0
2020-08-24,18:37:10.97144,ERR,ErrD,1,11764,11704,8505,100,94,98,28,0.00,8620,10026,622,0,11.21,7.09,1.93,18.99,6.77,0.00,1418.90,6.68,3.33,3.35,5.33,0.00,21.48,66.53,31071,34417,33097,38,33561,31182,1
2020-08-24,18:37:11.97345,ERR,ErrD,1,11764,11704,8527,100,86,96,28,0.00,6943,10325,459,0,10.72,7.10,2.30,18.97,6.73,0.00,1418.90,6.68,3.33,3.35,5.32,0.00,21.66,66.18,31543,34237,32986,38,24890,33914,1
2020-08-24,18:37:11.97546,ERR,ErrD,1,11764,11704,8549,100,71,95,28,0.00,5206,10934,295,0,11.04,7.10,2.30,19.03,6.74,0.00,1418.90,6.68,3.33,3.35,5.33,0.00,21.66,68.02,34382,32488,33226,38,28798,35331,0
2020-08-24,18:37:11.97747,ERR,ErrD,1,11764,11704,8571,100,100,95,19,0.00,5206,19657,213,0,11.25,7.09,1.92,19.03,6.78,0.00,1418.90,6.68,3.33,3.35,5.33,0.00,21.67,68.12,33201,30159,33420,38,27450,30827,1
2020-08-24,18:37:11.97947,ERR,ErrD,1,11764,11704,8593,100,100,96,19,0.00,5206,19657,369,0,10.99,7.08,1.92,19.10,6.83,0.00,1418.90,6.68,3.33,3.35,5.33,0.00,21.87,68.74,32761,34155,32736,38,29917,32265,1
2020-08-24,18:37:11.98148,ERR,ErrD,1,11764,11704,8615,100,51,96,21,0.00,6921,11733,533,0,10.96,7.11,1.92,19.32,6.76,0.00,1418.90,6.68,3.33,3.35,5.32,0.00,21.81,69.50,33483,33232,33284,38,28436,31630,0
2020-08-24,18:37:12.98348,ERR,ErrD,1,11764,11704,8636,100,100,98,21,0.00,6920,19570,696,0,10.39,7.06,1.92,19.19,6.77,0.00,1418.90,6.69,3.34,3.35,5.32,0.00,21.81,70.12,32032,33559,33307,38,28700,33971,1
2020-08-24,18:37:12.98548,ERR,ErrD,1,11764,11704,8658,100,100,96,28,0.00,6904,19570,869,0,10.85,7.11,1.92,19.14,6.78,0.00,1418.90,6.69,3.34,3.35,5.32,0.00,21.62,69.37,32497,31362,33733,38,29980,33369,1
2020-08-24,18:37:12.98748,ERR,ErrD,1,12878,12879,8680,100,100,96,28,0.00,6904,19570,1032,0,10.97,7.09,2.45,19.21,6.73,0.00,1418.90,6.69,3.34,3.35,5.32,0.00,21.83,71.44,34504,34227,32560,38,30900,32028,1
2020-08-24,18:37:12.98949,ERR,ErrD,1,12878,12879,8702,100,93,95,28,0.00,8608,10036,1187,0,11.12,7.09,2.45,19.19,6.77,0.00,1418.90,6.69,3.34,3.35,5.32,0.00,21.86,72.60,32921,31619,33276,38,28086,33789,0
2020-08-24,18:37:12.99148,ERR,ErrD,1,12878,12879,8724,100,0,95,28,0.00,6918,15697,1351,0,11.22,7.09,2.45,19.12,6.72,0.00,1418.90,6.71,3.35,3.36,5.32,0.00,21.95,72.64,34902,32468,33186,38,28672,32931,0
2020-08-24,18:37:13.99349,ERR,ErrD,1,12878,12879,8746,100,0,92,28,0.00,6906,18087,1515,0,11.32,7.08,1.91,19.16,6.81,0.00,1418.90,6.71,3.35,3.36,5.33,0.00,21.60,73.18,34595,33843,33062,38,27991,32552,0
2020-08-24,18:37:13.99549,ERR,ErrD,1,12878,12879,8768,100,0,86,36,0.00,6902,18087,1688,0,10.86,7.08,1.91,19.21,6.72,0.00,1418.90,6.71,3.35,3.36,5.32,0.00,21.85,72.80,34070,34809,33156,38,28303,32190,0
2020-08-24,18:37:13.99750,ERR,ErrD,1,12878,12879,8790,100,0,82,36,0.00,6618,18087,1778,0,10.86,7.08,2.26,19.17,6.79,0.00,1418.90,6.69,3.35,3.34,5.32,0.00,21.61,74.25,34944,35193,32706,38,28623,33646,1
2020-08-24,18:37:13.99951,ERR,ErrD,1,12878,12879,8812,100,45,73,37,0.00,6903,11748,1597,0,10.82,7.11,2.26,19.35,6.80,0.00,1418.90,6.69,3.35,3.34,5.33,0.00,21.85,74.71,31767,32987,34040,38,27680,34881,1
2020-08-24,18:37:13.100152,ERR,ErrD,1,12878,12879,8834,100,48,74,37,0.00,6903,11748,1434,0,10.04,7.07,2.26,19.49,6.79,0.00,1418.90,6.69,3.35,3.34,5.33,0.00,21.74,74.36,35621,33604,32888,38,23745,32302,0
2020-08-24,18:37:14.100353,ERR,ErrD,1,12878,12879,8856,100,51,77,37,0.00,6903,11748,1277,0,10.79,7.12,2.06,19.29,6.76,0.00,1418.90,6.69,3.35,3.34,5.32,0.00,21.99,75.78,31561,32793,32226,38,25901,30759,0
2020-08-24,18:37:14.100554,ERR,ErrD,1,12878,12879,8878,100,100,83,37,0.00,6903,19269,1106,0,10.02,7.08,2.06,19.32,6.81,0.00,1418.90,6.71,3.34,3.37,5.33,0.00,22.02,76.43,32517,33030,32700,38,25565,31397,0
2020-08-24,18:37:14.100754,ERR,ErrD,1,12534,12564,8900,100,100,91,29,0.00,8604,9500,942,0,10.24,7.09,2.76,19.40,6.72,0.00,1418.90,6.71,3.34,3.37,5.32,0.00,22.04,76.91,31181,32888,32767,38,31500,27806,1
2020-08-24,18:37:14.100955,ERR,ErrD,1,12534,12564,8922,100,51,97,29,0.00,6920,11744,778,0,10.35,7.09,2.76,19.45,6.75,0.00,1418.90,6.71,3.34,3.37,5.33,0.00,21.91,77.65,32384,34024,31035,38,24737,32703,0
2020-08-24,18:37:14.101155,ERR,ErrD,1,12534,12564,8944,100,0,98,29,0.00,6903,14089,615,0,10.44,7.10,2.76,19.47,6.80,0.00,1418.90,6.71,3.34,3.37,5.33,0.00,22.03,77.91,31553,33442,32767,38,29546,33836,0
2020-08-24,18:37:15.101355,ERR,ErrD,1,12534,12564,8966,100,0,99,19,0.00,6903,18080,451,0,10.45,7.12,1.88,19.46,6.77,0.00,1418.90,6.71,3.35,3.36,5.33,0.00,21.98,78.31,30571,31167,31226,38,26380,34328,0
2020-08-24,18:37:15.101555,ERR,ErrD,1,12534,12564,8988,100,0,98,19,0.00,6903,18080,286,0,10.54,7.10,1.88,19.41,6.82,0.00,1418.90,6.71,3.35,3.36,5.32,0.00,22.02,78.80,30060,33179,32991,38,25927,34120,0
2020-08-24,18:37:15.101755,ERR,ErrD,1,12534,12564,9010,100,51,98,19,0.00,6905,11737,213,0,10.56,7.11,2.65,19.53,6.77,0.00,1418.90,6.71,3.35,3.36,5.32,0.00,22.42,78.09,33685,32663,32829,38,25269,33952,0
2020-08-24,18:37:15.101956,ERR,ErrD,1,12534,12564,9032,100,25,98,19,0.00,5205,12789,377,0,10.31,7.07,2.65,19.31,6.82,0.00,1418.90,6.70,3.33,3.37,5.33,0.00,22.21,79.82,33773,32939,33547,38,23232,32172,0
2020-08-24,18:37:15.102156,ERR,ErrD,1,12534,12564,9054,100,0,97,19,0.00,5205,17471,541,0,9.92,7.09,2.65,19.58,6.76,0.00,1418.90,6.70,3.33,3.37,5.33,0.00,22.18,80.34,34433,32746,33707,38,20504,33275,1
2020-08-24,18:37:16.102357,ERR,ErrD,1,12534,12564,9076,100,0,97,19,0.00,5205,17471,705,0,10.35,7.09,2.20,19.66,6.80,0.00,1418.90,6.70,3.33,3.37,5.33,0.00,22.12,80.85,31859,31881,33518,38,31098,36821,1
2020-08-24,18:37:16.102557,ERR,ErrD,1,12534,12564,9098,100,0,97,19,0.00,4913,17471,869,0,10.24,7.06,2.20,19.50,6.75,0.00,1418.90,6.70,3.33,3.37,5.32,0.00,22.13,81.35,34246,31076,32997,38,30891,34210,0
2020-08-24,18:37:16.102758,ERR,ErrD,1,12086,11997,9120,100,85,97,19,0.00,6904,10362,1032,0,10.36,7.09,2.02,19.64,6.78,0.00,1418.90,6.71,3.34,3.37,5.32,0.00,22.53,81.81,34178,34001,33387,38,27488,34480,1
2020-08-24,18:37:16.102959,ERR,ErrD,1,12086,11997,9142,100,0,97,19,0.00,6904,17867,1204,0,10.36,7.10,2.02,19.61,6.82,0.00,1418.90,6.71,3.34,3.37,5.33,0.00,22.16,82.24,32639,33874,33288,38,23888,33861,1
2020-08-24,18:37:16.103159,ERR,ErrD,1,12086,11997,9164,100,0,98,19,0.00,6904,17867,1360,0,11.01,7.09,2.02,19.70,6.76,0.00,1418.90,6.71,3.34,3.37,5.32,0.00,22.17,82.96,31517,31362,34733,38,27037,34288,1
2020-08-24,18:37:17.103360,ERR,ErrD,1,12086,11997,9186,100,0,99,20,0.00,6902,17867,1524,0,10.18,7.12,2.66,19.65,6.78,0.00,1418.90,6.71,3.35,3.37,5.33,0.00,22.41,83.16,33022,34427,33138,38,21010,34185,0
2020-08-24,18:37:17.103560,ERR,ErrD,1,12086,11997,9208,100,86,98,20,0.00,8325,10327,1696,0,10.66,7.07,2.66,19.58,6.81,0.00,1418.90,6.71,3.35,3.37,5.33,0.00,22.47,83.87,32570,33003,31929,38,33052,34376,0
2020-08-24,18:37:17.103760,ERR,ErrD,1,12086,11997,9230,100,67,98,20,0.00,6903,11097,1762,0,10.59,7.09,2.72,19.52,6.78,0.00,1418.90,6.71,3.35,3.37,5.33,0.00,22.30,84.43,33721,32078,32924,38,46678,33216,0
2020-08-24,18:37:17.103960,ERR,ErrD,1,12086,11997,9252,100,67,98,20,0.00,6903,11099,1606,0,10.21,7.11,2.72,19.74,6.81,0.00,1418.90,6.71,3.35,3.37,5.33,0.00,22.22,84.84,33080,31795,32954,38,26570,30183,0
2020-08-24,18:37:17.104160,ERR,ErrD,1,12086,11997,9274,100,2,97,23,0.00,8318,13680,1442,0,10.12,7.10,2.72,19.63,6.77,0.00,1418.90,6.71,3.34,3.37,5.33,0.00,22.59,85.34,32158,31760,31274,38,28259,34335,0
2020-08-24,18:37:18.104360,ERR,ErrD,1,12086,11997,9295,100,0,97,23,0.00,6919,17839,1277,0,10.68,7.08,2.00,19.66,6.77,0.00,1418.90,6.71,3.34,3.37,5.33,0.00,22.44,85.39,31386,31458,32679,38,22838,31609,0
2020-08-24,18:37:18.104560,ERR,ErrD,1,12086,11997,9317,100,51,95,23,0.00,6902,11744,1106,0,10.01,7.10,2.00,19.74,6.78,0.00,1418.90,6.71,3.34,3.37,5.32,0.00,22.41,86.07,32134,32075,34807,38,24020,35262,0
2020-08-24,18:37:18.104760,ERR,ErrD,1,12120,12180,9339,100,51,93,23,0.00,6902,11744,950,0,10.49,7.11,2.51,19.72,6.81,0.00,1418.90,6.71,3.35,3.37,5.32,0.00,22.56,86.49,32677,33010,31610,38,22348,31097,1
2020-08-24,18:37:18.104961,ERR,ErrD,1,12120,12180,9361,100,51,93,21,0.00,6902,11744,787,0,10.06,7.12,2.51,19.76,6.76,0.00,1418.90,6.71,3.35,3.37,5.33,0.00,22.44,86.81,33150,33526,33966,38,25900,35283,0
2020-08-24,18:37:18.105161,ERR,ErrD,1,12120,12180,9381,100,51,92,43,0.00,6920,11745,622,0,10.19,7.09,2.51,19.75,6.73,0.00,1418.90,6.71,3.35,3.37,5.32,0.00,22.55,87.18,32830,33199,33203,38,24544,35360,0
2020-08-24,18:37:19.105361,ERR,ErrD,1,12120,12180,9403,100,86,91,43,0.00,8334,10327,451,0,10.24,7.09,2.27,19.78,6.75,0.00,1418.90,6.71,3.35,3.37,5.33,0.00,22.36,86.42,35073,32444,32069,38,22743,35929,1
2020-08-24,18:37:19.105562,ERR,ErrD,1,12120,12180,9425,100,73,92,43,0.00,6906,10834,286,0,10.22,7.09,2.27,19.75,6.74,0.00,1418.90,6.71,3.35,3.37,5.32,0.00,22.61,88.63,31169,31750,33668,38,19669,33015,0
2020-08-24,18:37:19.105763,ERR,ErrD,1,12120,12180,9447,100,59,94,43,0.00,6624,11428,213,0,10.13,7.10,1.86,19.62,6.80,0.00,1418.90,6.71,3.35,3.37,5.32,0.00,22.51,87.26,33827,32345,33159,38,21773,33038,1
2020-08-24,18:37:19.105963,ERR,ErrD,1,12120,12180,9469,100,0,96,19,0.00,6624,18011,377,0,10.42,7.11,1.86,19.80,6.82,0.00,1418.90,6.71,3.35,3.37,5.32,0.00,22.67,89.40,32826,31477,31861,38,22476,33305,1
2020-08-24,18:37:19.106164,ERR,ErrD,1,12120,12180,9491,100,0,97,19,0.00,6624,18011,541,0,10.56,7.11,1.86,19.80,6.78,0.00,1418.90,6.72,3.36,3.37,5.32,0.00,22.71,89.70,34077,34215,33469,38,26767,35281,1
2020-08-24,18:37:20.106364,ERR,ErrD,1,12120,12180,9513,100,86,99,19,0.00,8315,10325,705,0,10.42,7.10,2.08,19.96,6.79,0.00,1418.90,6.72,3.36,3.37,5.32,0.00,22.59,90.02,33561,32010,31487,38,23200,33450,1
2020-08-24,18:37:20.106564,ERR,ErrD,1,12120,12180,9535,100,0,98,19,0.00,8320,14612,869,0,10.56,7.10,2.08,19.93,6.78,0.00,1418.90,6.72,3.36,3.37,5.33,0.00,22.99,90.41,33079,32214,32409,38,26746,33228,0
2020-08-24,18:37:20.106765,ERR,ErrD,1,12020,12050,9557,100,0,97,19,0.00,7975,18032,1032,0,10.39,7.10,1.88,19.90,6.78,0.00,1418.90,6.72,3.36,3.37,5.33,0.00,22.76,89.48,32308,32184,32310,38,24236,31993,1
2020-08-24,18:37:20.106965,ERR,ErrD,1,12020,12050,9579,100,0,98,19,0.00,7953,18032,1196,0,10.49,7.06,1.88,19.94,6.82,0.00,1418.90,6.71,3.35,3.37,5.32,0.00,22.70,91.50,30945,30282,31200,38,23207,31238,0
2020-08-24,18:37:20.107165,ERR,ErrD,1,12020,12050,9601,100,86,97,19,0.00,8365,10327,1360,0,10.54,7.11,1.88,19.90,6.77,0.00,1418.90,6.71,3.35,3.37,5.33,0.00,22.53,92.42,31298,33636,33578,38,23034,32817,1
2020-08-24,18:37:21.107365,ERR,ErrD,1,12020,12050,9623,100,16,98,19,0.00,5201,13110,1524,0,10.58,7.10,2.43,20.01,6.78,0.00,1418.90,6.71,3.35,3.37,5.33,0.00,22.97,92.54,31207,34909,31741,38,23886,31362,1
2020-08-24,18:37:21.107566,ERR,ErrD,1,12020,12050,9645,100,0,97,19,0.00,5201,18246,1688,0,10.27,7.11,2.43,19.95,6.84,0.00,1418.90,6.72,3.35,3.38,5.33,0.00,23.01,92.88,33548,32714,33272,38,22021,35456,0
2020-08-24,18:37:21.107766,ERR,ErrD,1,12020,12050,9667,100,0,98,19,0.00,5201,18246,1769,0,10.09,7.10,2.07,20.04,6.76,0.00,1418.90,6.72,3.35,3.38,5.33,0.00,22.98,93.32,33500,33229,33704,38,22486,33268,0
2020-08-24,18:37:21.107966,ERR,ErrD,1,12020,12050,9689,100,0,98,18,0.00,5201,18246,1606,0,10.22,7.10,2.07,20.02,6.76,0.00,1418.90,6.72,3.35,3.38,5.33,0.00,22.90,93.70,29842,34307,34079,38,19820,27885,1
2020-08-24,18:37:21.108166,ERR,ErrD,1,12020,12050,9711,100,86,99,19,0.00,8319,10324,1442,0,10.39,7.12,2.07,20.14,6.78,0.00,1418.90,6.72,3.35,3.38,5.33,0.00,22.92,94.14,31827,32377,34180,38,21369,32321,1
2020-08-24,18:37:22.108366,ERR,ErrD,1,12020,12050,9733,100,0,99,19,0.00,8314,18250,1277,0,10.52,7.09,2.37,20.07,6.78,0.00,1418.90,6.72,3.36,3.37,5.32,0.00,23.07,94.54,30893,32041,33082,38,20246,34081,1
2020-08-24,18:37:22.108567,ERR,ErrD,1,12020,12050,9755,100,0,99,19,0.00,8314,18250,1113,0,10.29,7.08,2.37,20.28,6.75,0.00,1418.90,6.72,3.36,3.37,5.33,0.00,22.97,94.08,31640,31488,30933,38,23374,33034,1
2020-08-24,18:37:22.108767,ERR,ErrD,1,12223,12103,9777,100,0,99,19,0.00,5205,18250,950,0,10.36,7.11,2.28,20.06,6.75,0.00,1418.90,6.72,3.36,3.37,5.32,0.00,23.10,95.33,33704,35041,33476,38,24905,33446,0
2020-08-24,18:37:22.108968,ERR,ErrD,1,12223,12103,9800,100,100,99,19,0.00,8618,9500,778,0,10.22,7.10,2.28,20.22,6.82,0.00,1418.90,6.72,3.35,3.38,5.33,0.00,23.25,95.74,32772,33626,32494,38,22486,34262,1
2020-08-24,18:37:22.109169,ERR,ErrD,1,12223,12103,9822,100,75,99,19,0.00,8322,10776,615,0,10.37,7.11,2.28,20.16,6.80,0.00,1418.90,6.72,3.35,3.38,5.32,0.00,23.19,96.20,30844,33189,32460,38,22088,33472,1
2020-08-24,18:37:23.109370,ERR,ErrD,1,12223,12103,9844,100,75,99,19,0.00,8310,10776,459,0,10.26,7.10,2.12,20.11,6.81,0.00,1418.90,6.72,3.35,3.38,5.33,0.00,23.34,96.49,32541,31517,33649,38,21190,31855,1
2020-08-24,18:37:23.109572,ERR,ErrD,1,12223,12103,9867,100,0,98,19,0.00,8313,14688,286,0,10.06,7.09,2.12,19.99,6.82,0.00,1418.90,6.72,3.35,3.38,5.33,0.00,23.07,96.91,32417,32310,32186,38,20750,30834,1
2020-08-24,18:37:23.109773,ERR,ErrD,1,12223,12103,9889,100,0,98,26,0.00,7958,14688,213,0,10.42,7.09,1.74,20.13,6.81,0.00,1418.90,6.72,3.36,3.37,5.32,0.00,23.24,97.42,36375,33814,31702,38,22253,29770,1
2020-08-24,18:37:23.109973,ERR,ErrD,1,12223,12103,9911,100,85,97,26,0.00,8319,10363,377,0,10.57,7.06,1.74,20.29,6.76,0.00,1418.90,6.72,3.36,3.37,5.32,0.00,23.07,97.80,33482,33792,32967,38,24125,30018,1
2020-08-24,18:37:23.110173,ERR,ErrD,1,12223,12103,9933,100,0,98,26,0.00,8319,14465,533,0,10.57,7.08,1.74,20.33,6.79,0.00,1418.90,6.72,3.36,3.37,5.33,0.00,23.24,98.19,30810,33175,32330,38,24101,35403,0
2020-08-24,18:37:24.110374,ERR,ErrD,1,12223,12103,9955,100,0,97,27,0.00,7767,17957,705,0,10.26,7.11,2.04,20.18,6.77,0.00,1418.90,6.71,3.35,3.37,5.33,0.00,23.33,98.56,31338,33221,32866,38,20315,31576,1
2020-08-24,18:37:24.110575,ERR,ErrD,1,12223,12103,9977,100,0,97,28,0.00,7767,17957,869,0,10.42,7.09,2.04,20.27,6.78,0.00,1418.90,6.71,3.35,3.37,5.33,0.00,23.45,98.96,33499,32844,31649,38,22472,34319,1
2020-08-24,18:37:24.110776,ERR,ErrD,1,12033,12063,9999,100,0,98,28,0.00,8317,17957,1032,0,10.53,7.09,1.76,20.24,6.81,0.00,1418.90,6.71,3.35,3.37,5.32,0.00,23.39,98.21,32795,33289,32318,38,24186,30121,1
2020-08-24,18:37:24.110976,ERR,ErrD,1,12033,12063,10021,100,0,97,28,0.00,8329,18086,1196,0,10.33,7.11,1.76,20.31,6.72,0.00,1418.90,6.71,3.35,3.37,5.32,0.00,23.18,100.16,31481,32481,32686,38,18503,33586,0
2020-08-24,18:37:24.111176,ERR,ErrD,1,12033,12063,10043,100,0,98,28,0.00,8325,18086,1360,0,10.53,7.10,1.76,20.14,6.81,0.00,1418.90,6.73,3.36,3.38,5.32,0.00,23.58,100.14,32884,32483,32336,38,23243,32504,1
2020-08-24,18:37:25.111376,ERR,ErrD,1,12033,12063,10065,100,0,99,19,0.00,7967,18086,1524,0,10.14,7.09,2.33,20.38,6.79,0.00,1418.90,6.73,3.36,3.38,5.32,0.00,23.56,100.47,33257,31374,31219,38,20312,34445,0
2020-08-24,18:37:25.111576,ERR,ErrD,1,12033,12063,10087,100,0,98,20,0.00,5202,18086,1688,0,10.31,7.08,2.33,20.26,6.72,0.00,1418.90,6.73,3.36,3.38,5.33,0.00,23.51,100.17,32725,35439,33008,38,20218,36221,0
2020-08-24,18:37:25.111777,ERR,ErrD,1,12033,12063,10109,100,94,98,20,0.00,8312,10029,1769,0,10.46,7.12,2.74,20.42,6.82,0.00,1418.90,6.73,3.36,3.38,5.32,0.00,23.76,101.23,31765,32944,32172,38,26541,34631,0
2020-08-24,18:37:25.111978,ERR,ErrD,1,12033,12063,10131,100,86,97,20,0.00,8112,10333,1606,0,10.45,7.10,2.74,20.49,6.77,0.00,1418.90,6.72,3.35,3.38,5.33,0.00,23.43,101.62,33148,33066,32688,38,25828,33370,0
2020-08-24,18:37:25.112179,ERR,ErrD,1,12033,12063,10153,100,0,97,24,0.00,8319,15012,1442,0,10.29,7.10,2.74,20.42,6.79,0.00,1418.90,6.72,3.35,3.38,5.32,0.00,23.54,101.96,32804,33155,32355,38,23924,29793,0
2020-08-24,18:37:26.112380,ERR,ErrD,1,12033,12063,10175,100,0,97,24,0.00,7956,16644,1270,0,10.65,7.10,2.11,20.35,6.75,0.00,1418.90,6.72,3.35,3.38,5.33,0.00,23.54,102.34,32376,33132,32767,38,28655,32569,0
2020-08-24,18:37:26.112580,ERR,ErrD,1,12033,12063,10197,100,0,98,24,0.00,7956,16644,1106,0,10.32,7.10,2.11,20.47,6.82,0.00,1418.90,6.73,3.36,3.38,5.32,0.00,23.62,103.39,32645,33257,33457,38,31537,30457,0
2020-08-24,18:37:26.112781,ERR,ErrD,1,12163,12133,10219,100,86,98,24,0.00,8313,10325,950,0,10.36,7.10,2.09,20.52,6.77,0.00,1418.90,6.73,3.36,3.38,5.33,0.00,23.82,103.23,30870,33365,31849,38,24058,33467,1
2020-08-24,18:37:26.112981,ERR,ErrD,1,12163,12133,10241,100,20,98,22,0.00,5203,12964,787,0,10.40,7.12,2.09,20.40,6.77,0.00,1418.90,6.73,3.36,3.38,5.32,0.00,23.67,103.53,32700,30935,31037,38,23988,35943,1
2020-08-24,18:37:26.113181,ERR,ErrD,1,12163,12133,10263,100,0,98,22,0.00,5203,17630,615,0,10.57,7.12,2.09,20.47,6.78,0.00,1418.90,6.73,3.36,3.38,5.32,0.00,23.79,103.91,32082,33058,33110,38,16567,32975,1
2020-08-24,18:37:27.113382,ERR,ErrD,1,12163,12133,10285,100,0,98,22,0.00,5203,17630,451,0,10.49,7.09,2.57,20.48,6.77,0.00,1418.90,6.72,3.36,3.37,5.33,0.00,23.68,104.35,30397,33686,33445,38,23866,33212,0
2020-08-24,18:37:27.113583,ERR,ErrD,1,12163,12133,10307,100,93,98,22,0.00,8607,10037,286,0,10.52,7.12,2.57,20.47,6.84,0.00,1418.90,6.72,3.36,3.37,5.33,0.00,23.78,104.61,31911,32312,31873,38,23695,35624,0
2020-08-24,18:37:27.113785,ERR,ErrD,1,12163,12133,10329,100,0,99,20,0.00,6904,17529,213,0,10.24,7.10,1.74,20.41,6.81,0.00,1418.90,6.72,3.36,3.37,5.33,0.00,23.72,103.36,31617,35168,33596,38,22627,34422,0
2020-08-24,18:37:27.113986,ERR,ErrD,1,12163,12133,10351,100,0,100,20,0.00,6902,17529,377,0,10.48,7.10,1.74,20.55,6.80,0.00,1418.90,6.72,3.36,3.37,5.32,0.00,23.74,105.30,32048,33615,32548,38,24454,31242,1
2020-08-24,18:37:27.114185,ERR,ErrD,1,12163,12133,10373,100,0,100,19,0.00,5214,17529,541,0,10.17,7.09,1.74,20.49,6.80,0.00,1418.90,6.72,3.35,3.38,5.32,0.00,23.93,105.64,33903,33029,30911,38,24783,32683,1
2020-08-24,18:37:28.114386,ERR,ErrD,1,12163,12133,10396,100,0,100,19,0.00,5203,17529,713,0,10.37,7.09,1.72,20.59,6.81,0.00,1418.90,6.72,3.35,3.38,5.33,0.00,23.79,105.83,31603,34163,32589,38,23509,30556,0
2020-08-24,18:37:28.114588,ERR,ErrD,1,12163,12133,10418,100,86,100,19,0.00,8311,10322,869,0,10.27,7.11,1.72,20.59,6.81,0.00,1418.90,6.72,3.35,3.38,5.32,0.00,23.83,106.24,31518,32318,32028,38,21001,29086,1
2020-08-24,18:37:28.114788,ERR,ErrD,1,12170,12050,10440,100,35,100,22,0.00,5205,12356,1032,0,10.29,7.09,2.65,20.65,6.78,0.00,1418.90,6.72,3.36,3.37,5.32,0.00,23.83,106.51,33479,33533,33255,38,29280,35180,0
2020-08-24,18:37:28.114988,ERR,ErrD,1,12170,12050,10462,100,0,100,22,0.00,6921,14493,1196,0,10.46,7.10,2.65,20.66,6.76,0.00,1418.90,6.72,3.36,3.37,5.33,0.00,24.07,106.78,31448,32300,30904,38,26678,29605,1
2020-08-24,18:37:28.115188,ERR,ErrD,1,12170,12050,10484,100,0,99,22,0.00,6921,17785,1360,0,10.59,7.11,2.65,20.54,6.82,0.00,1418.90,6.72,3.36,3.37,5.33,0.00,24.20,107.06,33872,32574,32279,38,23695,32020,1
2020-08-24,18:37:29.115388,ERR,ErrD,1,12170,12050,10506,100,86,98,22,0.00,6907,10335,1524,0,10.79,7.12,2.67,20.68,6.80,0.00,1418.90,6.72,3.36,3.37,5.33,0.00,24.11,107.56,33480,30914,30846,38,27332,29869,0
2020-08-24,18:37:29.115588,ERR,ErrD,1,12170,12050,10528,100,64,98,20,0.00,6203,11224,1688,0,10.48,7.08,2.67,20.63,6.78,0.00,1418.90,6.72,3.36,3.36,5.32,0.00,24.21,107.82,31136,32699,32550,38,24899,35473,1
2020-08-24,18:37:29.115789,ERR,ErrD,1,12170,12050,10550,100,0,98,20,0.00,6903,15762,1769,0,10.21,7.11,1.81,20.73,6.76,0.00,1418.90,6.72,3.36,3.36,5.33,0.00,24.07,108.13,33721,32433,32468,38,26899,32873,0
2020-08-24,18:37:29.115990,ERR,ErrD,1,12170,12050,10572,100,0,97,20,0.00,6902,17908,1597,0,10.09,7.12,1.81,20.69,6.75,0.00,1418.90,6.72,3.36,3.36,5.32,0.00,23.96,108.57,32543,31397,31952,38,26212,32906,0
2020-08-24,18:37:29.116189,ERR,ErrD,1,12170,12050,10594,100,0,98,20,0.00,6902,17908,1442,0,10.54,7.09,1.81,20.63,6.79,0.00,1418.90,6.72,3.36,3.37,5.32,0.00,24.13,108.03,29877,34874,34655,38,25101,31918,0
2020-08-24,18:37:30.116389,ERR,ErrD,1,12170,12050,10616,100,86,97,19,0.00,6923,10323,1277,0,9.85,7.11,1.73,20.75,6.76,0.00,1418.90,6.72,3.36,3.37,5.33,0.00,24.12,108.99,30428,30504,31355,38,21286,33668,1
2020-08-24,18:37:30.116589,ERR,ErrD,1,12170,12050,10638,100,59,97,20,0.00,6791,11423,1113,0,10.23,7.11,1.73,20.71,6.76,0.00,1418.90,6.72,3.36,3.37,5.32,0.00,24.36,109.40,33545,33576,32812,38,26495,36415,1
2020-08-24,18:37:30.116790,ERR,ErrD,1,12103,12044,10660,100,0,98,20,0.00,6791,17558,942,0,10.38,7.11,1.84,20.86,6.76,0.00,1418.90,6.72,3.36,3.37,5.32,0.00,24.41,110.41,30051,32499,32364,38,23465,30256,0
2020-08-24,18:37:30.116991,ERR,ErrD,1,12103,12044,10682,100,0,98,20,0.00,6791,17558,778,0,10.41,7.09,1.84,20.83,6.79,0.00,1418.90,6.73,3.37,3.37,5.33,0.00,24.35,110.01,35247,32157,32062,38,22552,31564,0
2020-08-24,18:37:30.117191,ERR,ErrD,1,12103,12044,10704,100,86,99,20,0.00,8334,10323,622,0,10.19,7.10,1.84,20.80,6.77,0.00,1418.90,6.73,3.37,3.37,5.32,0.00,24.42,110.24,33303,32946,32455,38,24885,32047,1
2020-08-24,18:37:31.117391,ERR,ErrD,1,12103,12044,10726,100,13,99,22,0.00,4922,13235,459,0,10.40,7.12,1.72,20.87,6.81,0.00,1418.90,6.73,3.37,3.37,5.32,0.00,24.15,109.92,33494,33337,32491,38,26867,36471,0
2020-08-24,18:37:31.117592,ERR,ErrD,1,12103,12044,10748,100,0,99,22,0.00,4922,18035,286,0,10.39,7.10,1.72,20.76,6.75,0.00,1418.90,6.72,3.36,3.37,5.33,0.00,24.43,110.88,32634,33735,31745,38,25877,33180,0
2020-08-24,18:37:31.117793,ERR,ErrD,1,12103,12044,10770,100,0,99,22,0.00,4922,18035,213,0,10.50,7.10,2.33,20.90,6.79,0.00,1418.90,6.72,3.36,3.37,5.32,0.00,24.57,111.14,31245,33182,31338,38,24533,30810,0
2020-08-24,18:37:31.117993,ERR,ErrD,1,12103,12044,10792,100,0,98,28,0.00,4922,18035,377,0,10.04,7.12,2.33,21.11,6.78,0.00,1418.90,6.72,3.36,3.37,5.33,0.00,24.42,111.48,33379,32216,33997,38,22579,29788,1
2020-08-24,18:37:31.118194,ERR,ErrD,1,12103,12044,10814,100,86,97,28,0.00,8316,10332,541,0,10.61,7.08,2.33,20.94,6.75,0.00,1418.90,6.72,3.36,3.37,5.33,0.00,24.72,111.92,31302,33778,33056,38,23438,35284,0
2020-08-24,18:37:32.118393,ERR,ErrD,1,12103,12044,10836,100,86,98,28,0.00,8316,10332,705,0,10.51,7.12,1.76,20.96,6.73,0.00,1418.90,6.73,3.36,3.38,5.32,0.00,24.75,112.35,31829,33026,32731,38,21836,33428,0
2020-08-24,18:37:32.118593,ERR,ErrD,1,12103,12044,10858,100,86,98,28,0.00,6917,10332,869,0,10.20,7.11,1.76,20.92,6.77,0.00,1418.90,6.73,3.36,3.38,5.32,0.00,24.59,112.59,29639,33554,31591,38,23874,34653,0
2020-08-24,18:37:32.118794,ERR,ErrD,1,12037,12037,10880,100,0,99,19,0.00,8331,14130,1032,0,10.09,7.10,2.31,21.17,6.78,0.00,1418.90,6.73,3.36,3.38,5.33,0.00,24.73,112.86,33157,34567,31031,38,24137,34943,0
2020-08-24,18:37:32.118994,ERR,ErrD,1,12037,12037,10901,100,100,98,19,0.00,6942,9500,1196,0,10.23,7.11,2.31,21.03,6.78,0.00,1418.90,6.75,3.37,3.38,5.32,0.00,24.43,113.17,31657,33195,34481,38,21397,32999,1
2020-08-24,18:37:32.119194,ERR,ErrD,1,12037,12037,10923,100,100,99,19,0.00,6906,19399,1360,0,10.37,7.13,2.31,21.09,6.79,0.00,1418.90,6.75,3.37,3.38,5.33,0.00,24.74,113.43,31088,34660,34329,38,26435,33619,1
2020-08-24,18:37:33.119394,ERR,ErrD,1,12037,12037,10945,100,100,99,19,0.00,6902,19399,1524,0,9.98,7.12,2.47,21.10,6.79,0.00,1418.90,6.75,3.37,3.38,5.33,0.00,24.76,113.86,31142,32594,31985,38,22921,32262,1
2020-08-24,18:37:33.119594,ERR,ErrD,1,12037,12037,10967,100,100,99,19,0.00,5205,19399,1688,0,10.42,7.11,2.47,21.19,6.78,0.00,1418.90,6.75,3.37,3.38,5.33,0.00,24.92,114.01,32414,30724,33944,38,26191,34122,1
2020-08-24,18:37:33.119795,ERR,ErrD,1,12037,12037,10989,100,100,99,19,0.00,5205,19399,1769,0,10.40,7.10,1.96,20.96,6.80,0.00,1418.90,6.73,3.37,3.37,5.32,0.00,24.69,114.41,32150,33248,32023,38,24111,34132,0
2020-08-24,18:37:33.119995,ERR,ErrD,1,12037,12037,11011,100,86,99,20,0.00,8317,10325,1606,0,10.32,7.12,1.96,21.12,6.77,0.00,1418.90,6.73,3.37,3.37,5.33,0.00,24.70,113.00,33979,32935,32106,38,23683,33165,0
2020-08-24,18:37:33.120195,ERR,ErrD,1,12037,12037,11033,100,38,98,20,0.00,6631,12233,1442,0,10.77,7.10,1.96,21.22,6.77,0.00,1418.90,6.73,3.37,3.37,5.33,0.00,24.90,114.91,33034,30673,31569,38,29451,32400,1
2020-08-24,18:37:34.120396,ERR,ErrD,1,12037,12037,11055,100,9,98,20,0.00,5202,13423,1277,0,10.67,7.12,2.22,21.16,6.79,0.00,1418.90,6.74,3.36,3.38,5.32,0.00,25.01,115.17,33996,33420,32023,38,26607,32634,1
2020-08-24,18:37:34.120597,ERR,ErrD,1,12037,12037,11077,100,0,97,20,0.00,5202,18438,1106,0,10.32,7.07,2.22,21.22,6.79,0.00,1418.90,6.74,3.36,3.38,5.32,0.00,24.93,115.50,31523,33548,32702,38,26119,34660,0
2020-08-24,18:37:34.120798,ERR,ErrD,1,12080,12199,11099,100,0,97,20,0.00,5202,18438,950,0,10.46,7.09,1.98,21.21,6.81,0.00,1418.90,6.74,3.36,3.38,5.32,0.00,24.92,115.76,30768,32609,32470,38,24498,30755,1
2020-08-24,18:37:34.120999,ERR,ErrD,1,12080,12199,11121,100,59,97,20,0.00,6920,11396,787,0,10.47,7.08,1.98,21.29,6.81,0.00,1418.90,6.74,3.36,3.38,5.33,0.00,24.91,116.02,32614,33438,31898,38,27243,32033,1
2020-08-24,18:37:34.121201,ERR,ErrD,1,12080,12199,11143,100,0,97,20,0.00,6902,17463,615,0,10.93,7.09,1.98,21.16,6.81,0.00,1418.90,6.75,3.37,3.38,5.33,0.00,24.98,116.17,30007,31992,32964,38,24964,32520,1
2020-08-24,18:37:35.121402,ERR,ErrD,1,12080,12199,11165,100,0,98,20,0.00,6902,17463,451,0,10.10,7.09,2.02,21.33,6.81,0.00,1418.90,6.75,3.37,3.38,5.32,0.00,25.00,116.75,31642,33294,32763,38,23416,29965,1
2020-08-24,18:37:35.121602,ERR,ErrD,1,12080,12199,11187,100,0,99,20,0.00,5208,17463,286,0,10.20,7.15,2.02,21.21,6.77,0.00,1418.90,6.75,3.37,3.38,5.33,0.00,25.41,117.03,33448,33057,32606,38,24553,31960,1
2020-08-24,18:37:35.121802,ERR,ErrD,1,12080,12199,11208,100,93,96,26,0.00,8343,10052,197,0,10.44,7.07,1.84,21.35,6.73,0.00,1418.90,6.74,3.37,3.38,5.33,0.00,25.25,117.31,35277,33056,32388,38,23548,33949,0
2020-08-24,18:37:35.122003,ERR,ErrD,1,12080,12199,11230,100,0,90,27,0.00,8314,18003,369,0,10.24,7.10,1.84,21.49,6.75,0.00,1418.90,6.74,3.37,3.38,5.33,0.00,25.20,117.52,31636,32972,30910,38,25268,31473,1
2020-08-24,18:37:35.122203,ERR,ErrD,1,12080,12199,11252,100,0,85,27,0.00,6624,18003,533,0,10.41,7.11,1.84,21.42,6.79,0.00,1418.90,6.74,3.37,3.38,5.33,0.00,25.11,117.83,32469,33290,32387,38,25166,31396,1
2020-08-24,18:37:36.122404,ERR,ErrD,1,12080,12199,11274,100,0,84,27,0.00,6903,18003,696,0,10.17,7.10,2.26,21.50,6.82,0.00,1418.90,6.74,3.37,3.38,5.32,0.00,25.18,118.05,31369,33095,32636,38,25582,31698,0
2020-08-24,18:37:36.122604,ERR,ErrD,1,12080,12199,11296,100,0,83,27,0.00,6902,18003,869,0,10.58,7.13,2.26,21.44,6.78,0.00,1418.90,6.74,3.36,3.38,5.32,0.00,25.30,118.37,32849,33328,32093,38,25671,31551,1
2020-08-24,18:37:36.122805,ERR,ErrD,1,12086,12026,11318,100,51,87,26,0.00,6940,11745,1024,0,10.47,7.11,2.58,21.39,6.76,0.00,1418.90,6.74,3.36,3.38,5.33,0.00,25.14,118.69,36063,32212,32599,38,29548,32475,1
2020-08-24,18:37:36.123006,ERR,ErrD,1,12086,12026,11340,100,51,94,26,0.00,6919,11745,1187,0,10.19,7.08,2.58,21.42,6.79,0.00,1418.90,6.74,3.36,3.38,5.32,0.00,25.34,118.92,31312,32197,33138,38,25227,32033,0
2020-08-24,18:37:36.123206,ERR,ErrD,1,12086,12026,11362,100,100,94,20,0.00,6905,19335,1360,0,10.51,7.10,2.58,21.48,6.77,0.00,1418.90,6.75,3.37,3.38,5.33,0.00,25.34,119.20,31721,32596,32159,38,26752,32415,1
2020-08-24,18:37:37.123406,ERR,ErrD,1,12086,12026,11384,100,100,97,20,0.00,6902,19335,1524,0,10.13,7.10,2.48,21.41,6.76,0.00,1418.90,6.75,3.37,3.38,5.32,0.00,25.54,119.47,35460,29901,33051,38,26752,32653,0
2020-08-24,18:37:37.123607,ERR,ErrD,1,12086,12026,11406,100,51,97,20,0.00,6921,11734,1688,0,10.36,7.12,2.48,21.45,6.78,0.00,1418.90,6.75,3.37,3.38,5.32,0.00,25.47,119.91,31974,33498,32061,38,21060,32861,1
2020-08-24,18:37:37.123806,ERR,ErrD,1,12086,12026,11428,100,19,97,19,0.00,5205,13005,1778,0,10.44,7.05,2.31,21.49,6.77,0.00,1418.90,6.75,3.37,3.38,5.33,0.00,25.82,120.05,31027,32145,31353,38,26752,33117,0
2020-08-24,18:37:37.124006,ERR,ErrD,1,12086,12026,11449,100,0,97,20,0.00,5205,18065,1614,0,10.78,7.10,2.31,21.57,6.77,0.00,1418.90,6.75,3.38,3.38,5.32,0.00,25.52,120.41,35026,32576,32147,38,22561,33144,0
2020-08-24,18:37:37.124207,ERR,ErrD,1,12086,12026,11471,100,0,97,20,0.00,5205,18065,1442,0,10.31,7.11,2.31,21.56,6.80,0.00,1418.90,6.75,3.38,3.38,5.32,0.00,25.77,120.69,34045,30298,32841,38,26459,36403,0
2020-08-24,18:37:38.124408,ERR,ErrD,1,12086,12026,11493,100,0,97,20,0.00,5205,18065,1286,0,10.21,7.10,1.67,21.66,6.80,0.00,1418.90,6.75,3.38,3.38,5.33,0.00,25.65,120.98,33938,32571,32183,38,24530,34474,0
2020-08-24,18:37:38.124609,ERR,ErrD,1,12086,12026,11515,100,86,97,26,0.00,6922,10342,1122,0,10.55,7.08,1.67,21.60,6.77,0.00,1418.90,6.75,3.37,3.38,5.32,0.00,25.75,121.26,32255,32422,32617,38,25822,35154,0
2020-08-24,18:37:38.124809,ERR,ErrD,1,12033,12033,11537,100,0,97,26,0.00,6914,17981,950,0,10.71,7.09,2.45,21.51,6.76,0.00,1418.90,6.75,3.37,3.38,5.33,0.00,25.70,121.42,32568,33492,32240,38,26208,34091,1
2020-08-24,18:37:38.125009,ERR,ErrD,1,12033,12033,11559,100,0,98,26,0.00,6914,17981,787,0,10.26,7.11,2.45,21.70,6.74,0.00,1418.90,6.75,3.37,3.38,5.32,0.00,25.70,121.80,32388,33295,31929,38,26746,33871,1
2020-08-24,18:37:38.125209,ERR,ErrD,1,12033,12033,11581,100,0,98,26,0.00,5204,17981,622,0,10.16,7.08,2.45,21.75,6.75,0.00,1418.90,6.75,3.37,3.38,5.33,0.00,25.80,122.02,31065,32557,34084,38,22105,33788,0
2020-08-24,18:37:39.125409,ERR,ErrD,1,12033,12033,11603,100,51,98,20,0.00,6904,11749,459,0,9.99,7.11,2.47,21.73,6.79,0.00,1418.90,6.75,3.37,3.38,5.32,0.00,25.58,122.23,34018,33266,32518,38,23440,30919,0
2020-08-24,18:37:39.125609,ERR,ErrD,1,12033,12033,11625,100,0,99,20,0.00,6904,17938,295,0,10.82,7.09,2.47,21.81,6.78,0.00,1418.90,6.75,3.37,3.38,5.32,0.00,25.96,122.73,33079,33690,33828,38,24877,34866,1
2020-08-24,18:37:39.125810,ERR,ErrD,1,12033,12033,11647,100,0,99,19,0.00,6903,17938,205,0,10.62,7.12,2.13,21.75,6.77,0.00,1418.90,6.75,3.37,3.38,5.32,0.00,25.71,122.81,34829,34743,31965,38,22307,32065,0
2020-08-24,18:37:39.126011,ERR,ErrD,1,12033,12033,11669,100,0,99,19,0.00,6615,17938,369,0,10.20,7.09,2.13,21.82,6.78,0.00,1418.90,6.75,3.37,3.38,5.32,0.00,25.83,121.86,31910,33764,31908,38,26052,37417,1
2020-08-24,18:37:39.126210,ERR,ErrD,1,12033,12033,11689,100,41,96,22,0.00,6904,12111,533,0,10.30,7.13,2.13,21.70,6.82,0.00,1418.90,6.75,3.37,3.38,5.33,0.00,26.09,123.34,32751,31020,33211,38,28089,34142,1
2020-08-24,18:37:40.126410,ERR,ErrD,1,12033,12033,11711,100,86,97,22,0.00,8308,10321,696,0,10.13,7.16,1.71,21.64,6.77,0.00,1418.90,6.75,3.37,3.38,5.33,0.00,25.99,123.57,31991,33440,31774,38,24777,32514,0
2020-08-24,18:37:40.126611,ERR,ErrD,1,12033,12033,11733,100,62,97,22,0.00,6928,11302,860,0,10.46,7.11,1.71,21.84,6.83,0.00,1418.90,6.75,3.37,3.38,5.32,0.00,25.92,123.78,32630,33549,30148,38,26965,31916,1
2020-08-24,18:37:40.126810,ERR,ErrD,1,12059,12058,11755,100,38,97,22,0.00,5208,12235,1024,0,10.45,7.13,2.06,21.93,6.79,0.00,1418.90,6.75,3.37,3.38,5.33,0.00,26.14,124.05,32027,32418,32381,38,27010,33563,0
2020-08-24,18:37:40.127010,ERR,ErrD,1,12059,12058,11777,100,38,99,20,0.00,5208,12235,1187,0,10.52,7.09,2.06,22.05,6.77,0.00,1418.90,6.75,3.37,3.38,5.33,0.00,26.01,123.61,31618,32876,32767,38,24416,34462,1
2020-08-24,18:37:40.127210,ERR,ErrD,1,12059,12058,11798,100,100,100,20,0.00,5208,19232,1344,0,10.16,7.10,2.06,21.87,6.79,0.00,1418.90,6.75,3.37,3.38,5.33,0.00,26.20,124.62,31855,32499,33883,38,25312,35217,0
2020-08-24,18:37:41.127410,ERR,ErrD,1,12059,12058,11820,100,86,99,27,0.00,6902,10325,1515,0,10.67,7.09,1.60,21.97,6.80,0.00,1418.90,6.76,3.37,3.39,5.32,0.00,26.07,125.02,32578,33881,34016,38,23343,33704,1
2020-08-24,18:37:41.127611,ERR,ErrD,1,12059,12058,11842,100,51,99,27,0.00,6902,11745,1680,0,10.69,7.12,1.60,21.86,6.79,0.00,1418.90,6.76,3.37,3.39,5.32,0.00,26.16,125.05,28742,29535,33426,38,25818,31491,0
2020-08-24,18:37:41.127814,ERR,ErrD,1,12059,12058,11865,100,0,98,27,0.00,6909,14027,1769,0,10.12,7.09,1.69,21.94,6.76,0.00,1418.90,6.76,3.37,3.39,5.32,0.00,26.33,125.36,33668,31403,32356,38,25948,33028,0
2020-08-24,18:37:41.128014,ERR,ErrD,1,12059,12058,11887,100,0,98,27,0.00,6907,14027,1614,0,10.26,7.10,1.69,21.97,6.81,0.00,1418.90,6.76,3.37,3.39,5.33,0.00,26.22,125.60,30489,32847,32595,38,23208,31908,1
2020-08-24,18:37:41.128215,ERR,ErrD,1,12059,12058,11909,100,92,98,20,0.00,8606,10079,1450,0,10.48,7.11,1.69,21.94,6.81,0.00,1418.90,6.75,3.37,3.38,5.33,0.00,26.47,125.75,30682,33804,32353,38,23022,34754,1
2020-08-24,18:37:42.128415,ERR,ErrD,1,12059,12058,11931,100,0,98,20,0.00,6910,14888,1286,0,10.15,7.10,2.28,22.07,6.79,0.00,1418.90,6.75,3.37,3.38,5.32,0.00,26.24,126.05,33029,33538,32956,38,22445,34024,0
2020-08-24,18:37:42.128615,ERR,ErrD,1,12059,12058,11953,100,0,97,19,0.00,6906,18770,1113,0,10.43,7.10,2.28,22.12,6.77,0.00,1418.90,6.75,3.37,3.38,5.33,0.00,26.46,126.28,32175,33815,32036,38,23073,34538,0
2020-08-24,18:37:42.128815,ERR,ErrD,1,12127,12097,11975,100,0,97,19,0.00,5203,18770,950,0,10.20,7.08,2.21,22.25,6.75,0.00,1418.90,6.75,3.37,3.38,5.32,0.00,26.55,126.47,33987,33701,33093,38,22834,33719,1
2020-08-24,18:37:42.129016,ERR,ErrD,1,12127,12097,11997,100,0,98,19,0.00,5203,18770,795,0,10.25,7.10,2.21,22.03,6.76,0.00,1418.90,6.75,3.37,3.38,5.33,0.00,26.68,126.66,33648,33364,32078,38,26559,29015,0
2020-08-24,18:37:42.129216,ERR,ErrD,1,12127,12097,12019,100,86,98,19,0.00,8329,10330,631,0,10.18,7.10,2.21,22.15,6.81,0.00,1418.90,6.75,3.37,3.38,5.32,0.00,26.44,126.89,33272,32049,32560,38,24304,32180,0
2020-08-24,18:37:43.129417,ERR,ErrD,1,12127,12097,12041,100,100,98,19,0.00,6906,19548,459,0,10.44,7.11,2.17,22.21,6.78,0.00,1418.90,6.75,3.37,3.38,5.33,0.00,26.48,127.08,33857,33875,32667,38,20217,34404,0
2020-08-24,18:37:43.129618,ERR,ErrD,1,12127,12097,12063,100,100,99,19,0.00,6904,19548,295,0,10.40,7.12,2.17,22.10,6.80,0.00,1418.90,6.75,3.38,3.38,5.32,0.00,26.61,127.19,31460,34139,32965,38,21388,31689,1
2020-08-24,18:37:43.129819,ERR,ErrD,1,12127,12097,12085,100,100,99,19,0.00,5203,19548,197,0,10.11,7.11,1.87,22.11,6.76,0.00,1418.90,6.75,3.38,3.38,5.32,0.00,26.49,127.46,32766,33086,32801,38,22224,29162,0
2020-08-24,18:37:43.130019,ERR,ErrD,1,12127,12097,12107,100,86,98,27,0.00,6906,10323,369,0,10.42,7.11,1.87,22.22,6.77,0.00,1418.90,6.75,3.38,3.38,5.32,0.00,26.61,127.72,32319,31889,32587,38,22837,30816,0
2020-08-24,18:37:43.130219,ERR,ErrD,1,12127,12097,12129,100,86,99,27,0.00,6904,10324,533,0,10.38,7.11,1.87,22.20,6.76,0.00,1418.90,6.75,3.37,3.38,5.32,0.00,26.65,127.85,34084,34118,33558,38,23961,32682,0
2020-08-24,18:37:44.130420,ERR,ErrD,1,12127,12097,12151,100,51,98,27,0.00,6904,11737,696,0,10.26,7.10,1.77,22.25,6.78,0.00,1418.90,6.75,3.37,3.38,5.32,0.00,26.65,128.05,34811,32779,32767,38,21092,32408,0
2020-08-24,18:37:44.130622,ERR,ErrD,1,12127,12097,12174,100,0,97,27,0.00,6904,14564,860,0,10.34,7.09,1.77,22.09,6.78,0.00,1418.90,6.75,3.37,3.38,5.33,0.00,26.75,128.29,35986,32703,31590,38,20269,29722,0
2020-08-24,18:37:44.130821,ERR,ErrD,1,11984,12044,12196,100,0,97,26,0.00,6904,14564,1024,0,10.12,7.10,1.70,22.29,6.79,0.00,1418.90,6.75,3.37,3.38,5.33,0.00,26.74,128.51,32854,32606,32767,38,23420,29762,0
2020-08-24,18:37:44.131021,ERR,ErrD,1,11984,12044,12218,100,86,97,26,0.00,6922,10348,1187,0,10.32,7.09,1.70,22.22,6.78,0.00,1418.90,6.76,3.38,3.38,5.32,0.00,26.81,128.76,33892,33236,32266,38,22063,33193,0
2020-08-24,18:37:44.131221,ERR,ErrD,1,11984,12044,12240,100,28,97,26,0.00,5203,12637,1351,0,10.42,7.11,1.70,22.39,6.80,0.00,1418.90,6.76,3.38,3.38,5.32,0.00,27.03,128.95,31165,33200,32701,38,16950,34027,0
2020-08-24,18:37:45.131421,ERR,ErrD,1,11984,12044,12262,100,17,98,26,0.00,4923,13080,1515,0,10.38,7.09,1.87,22.30,6.78,0.00,1418.90,6.76,3.38,3.38,5.33,0.00,26.93,128.73,33401,30315,31914,38,21189,34378,0
2020-08-24,18:37:45.131621,ERR,ErrD,1,11984,12044,12284,100,0,99,26,0.00,4923,17936,1680,0,10.37,7.09,1.87,22.32,6.80,0.00,1418.90,6.76,3.38,3.38,5.32,0.00,26.95,129.38,31847,32521,36041,38,22649,35701,1
2020-08-24,18:37:45.131821,ERR,ErrD,1,11984,12044,12306,100,86,98,26,0.00,8325,10329,1778,0,10.59,7.12,2.16,22.18,6.78,0.00,1418.90,6.75,3.37,3.38,5.32,0.00,26.92,129.60,32798,33185,31825,38,21447,34232,1
2020-08-24,18:37:45.132021,ERR,ErrD,1,11984,12044,12328,100,51,98,26,0.00,6903,11739,1614,0,10.14,7.12,2.16,22.27,6.80,0.00,1418.90,6.75,3.37,3.38,5.33,0.00,26.92,128.64,32781,33149,31770,38,28773,33256,1
2020-08-24,18:37:45.132221,ERR,ErrD,1,11984,12044,12350,100,28,97,26,0.00,6796,12659,1450,0,10.36,7.09,2.16,22.39,6.76,0.00,1418.90,6.75,3.37,3.38,5.33,0.00,27.18,130.09,31505,33376,31256,38,22086,34920,1
2020-08-24,18:37:46.132422,ERR,ErrD,1,11984,12044,12372,100,0,96,26,0.00,6796,17834,1286,0,10.29,7.11,2.40,22.31,6.75,0.00,1418.90,6.75,3.38,3.38,5.32,0.00,27.00,130.16,32707,33293,32623,38,22205,32497,0
2020-08-24,18:37:46.132622,ERR,ErrD,1,11984,12044,12394,100,0,97,19,0.00,6796,17834,1122,0,10.26,7.08,2.40,22.36,6.75,0.00,1418.90,6.75,3.38,3.38,5.32,0.00,27.05,130.32,32073,29565,32810,38,25266,34950,0
2020-08-24,18:37:46.132822,ERR,ErrD,1,12073,12044,12416,100,86,97,19,0.00,7959,10325,960,0,10.66,7.09,2.08,22.29,6.81,0.00,1418.90,6.75,3.38,3.38,5.32,0.00,27.20,130.52,32092,32596,34298,38,24092,32058,1
2020-08-24,18:37:46.133022,ERR,ErrD,1,12073,12044,12438,100,60,96,19,0.00,6906,11362,795,0,11.02,7.09,2.08,22.43,6.81,0.00,1418.90,6.75,3.38,3.38,5.33,0.00,27.11,130.77,31603,31968,31386,38,33142,34835,1
2020-08-24,18:37:46.133223,ERR,ErrD,1,12073,12044,12460,100,100,94,19,0.00,6906,19329,622,0,10.20,7.10,2.08,22.35,6.85,0.00,1418.90,6.74,3.37,3.38,5.33,0.00,27.34,130.97,35009,34309,33170,38,27736,34931,0
2020-08-24,18:37:47.133424,ERR,ErrD,1,12073,12044,12482,100,100,89,26,0.00,6905,19329,459,0,10.56,7.10,1.97,22.36,6.78,0.00,1418.90,6.74,3.37,3.38,5.33,0.00,27.40,131.14,32125,32767,32890,38,33166,33955,0
2020-08-24,18:37:47.133624,ERR,ErrD,1,12073,12044,12504,100,94,85,26,0.00,8618,10029,304,0,10.29,7.10,1.97,22.39,6.78,0.00,1418.90,6.74,3.37,3.38,5.32,0.00,27.58,131.34,32478,34208,32003,38,24061,33093,0
2020-08-24,18:37:47.133824,ERR,ErrD,1,12073,12044,12526,100,22,84,26,0.00,5207,12904,205,0,10.32,7.07,2.08,22.50,6.75,0.00,1418.90,6.76,3.38,3.38,5.32,0.00,27.39,131.42,33036,33434,31512,38,26561,30290,0
2020-08-24,18:37:47.134025,ERR,ErrD,1,12073,12044,12548,100,0,86,26,0.00,5207,18328,377,0,10.56,7.07,2.08,22.45,6.77,0.00,1418.90,6.76,3.38,3.38,5.33,0.00,27.19,131.89,32838,32847,32217,38,25774,33916,0
